sub	all_racehorse_check	all_n_stop_trials	all_n_go_trials	all_go_rt	all_n_go_cor	all_go_cor_rt	all_n_go_error	all_go_error_rt	all_n_go_miss	all_stop_prob_resp	all_us_rt	all_ssd	all_ssrt_mean	all_ssrt_int	h_ed_racehorse_check	h_ed_n_stop_trials	h_ed_n_go_trials	h_ed_go_rt	h_ed_n_go_cor	h_ed_go_cor_rt	h_ed_n_go_error	h_ed_go_error_rt	h_ed_n_go_miss	h_ed_stop_prob_resp	h_ed_us_rt	h_ed_ssd	h_ed_ssrt_mean	h_ed_ssrt_int	l_ed_racehorse_check	l_ed_n_stop_trials	l_ed_n_go_trials	l_ed_go_rt	l_ed_n_go_cor	l_ed_go_cor_rt	l_ed_n_go_error	l_ed_go_error_rt	l_ed_n_go_miss	l_ed_stop_prob_resp	l_ed_us_rt	l_ed_ssd	l_ed_ssrt_mean	l_ed_ssrt_int	l_port_racehorse_check	l_port_n_stop_trials	l_port_n_go_trials	l_port_go_rt	l_port_n_go_cor	l_port_go_cor_rt	l_port_n_go_error	l_port_go_error_rt	l_port_n_go_miss	l_port_stop_prob_resp	l_port_us_rt	l_port_ssd	l_port_ssrt_mean	l_port_ssrt_int	s_port_racehorse_check	s_port_n_stop_trials	s_port_n_go_trials	s_port_go_rt	s_port_n_go_cor	s_port_go_cor_rt	s_port_n_go_error	s_port_go_error_rt	s_port_n_go_miss	s_port_stop_prob_resp	s_port_us_rt	s_port_ssd	s_port_ssrt_mean	s_port_ssrt_int
1	1	64	192	823.4391534391534	184	827.4130434782609	5	677.2	3	0.390625	592.4	396.859375	426.5797784391534	355.796875	1	32	96	790.2842105263157	92	795.8478260869565	3	619.6666666666666	1	0.4375	534.7142857142857	372.84375	417.44046052631575	373.28125	1	32	96	856.9468085106383	92	858.9782608695652	2	763.5	2	0.34375	665.8181818181819	420.875	436.07180851063833	337.78125	1	32	96	828.2604166666666	92	837.3369565217391	4	619.5	0	0.34375	632.1818181818181	373.9375	454.32291666666663	338.96875	1	32	96	818.4623655913979	92	817.4891304347826	1	908.0	3	0.4375	561.1428571428571	419.78125	398.6811155913979	364.03125
4	1	64	192	774.7765957446809	185	774.7945945945946	3	773.6666666666666	4	0.4375	621.6296296296297	315.109375	459.6672207446809	371.578125	1	32	96	766.7916666666666	95	764.0736842105263	1	1025.0	0	0.4375	598.1428571428571	302.0625	464.72916666666663	355.75	1	32	96	783.1086956521739	90	786.1111111111111	2	648.0	4	0.4375	646.9230769230769	328.15625	454.9524456521739	364.84375	1	32	96	766.6842105263158	94	768.8297872340426	1	565.0	1	0.40625	589.5384615384615	338.03125	428.65296052631584	327.96875	1	32	96	783.0430107526881	91	780.9560439560439	2	878.0	3	0.46875	651.4285714285714	292.1875	490.85551075268813	406.9375
5	1	64	192	639.171875	179	647.4692737430167	13	524.9230769230769	0	0.484375	579.9354838709677	241.765625	397.40625	366.265625	0	32	96	621.3541666666666	89	634.8876404494382	7	449.2857142857143	0	0.4375	644.2857142857143	229.78125			1	32	96	656.9895833333334	90	659.9111111111112	6	613.1666666666666	0	0.53125	526.9411764705883	253.75	403.23958333333337	371.53125	1	32	96	638.6354166666666	89	643.4719101123595	7	577.1428571428571	0	0.5	637.0625	275.09375	363.54166666666663	334.40625	1	32	96	639.7083333333334	90	651.4222222222222	6	464.0	0	0.46875	519.0	208.4375	431.27083333333337	397.28125
6	0	64	192	672.6034482758621	172	671.0705882352942	6	737.75	14	0.46875	677.1034482758621	282.0			0	32	96	665.0574712643678	85	665.9058823529411	2	629.0	9	0.5	719.6	272.8125			1	32	96	680.1494252873563	87	676.2352941176471	4	846.5	5	0.4375	631.5714285714286	291.1875	359.0652472527472	297.5	1	32	96	754.4074074074074	79	755.4615384615385	5	727.0	12	0.4375	726.0	311.4375	416.02678571428567	350.375	0	32	96	601.3548387096774	93	599.5217391304348	1	770.0	2	0.5	637.375	252.5625		
7	1	32	96	834.8111111111111	87	832.7471264367816	3	894.6666666666666	6	0.5	758.5625	290.59375	544.2173611111111	563.90625																																																								
11	1	64	192	649.5714285714286	186	656.6075268817204	3	213.33333333333334	3	0.421875	443.962962962963	306.25	343.32142857142856	227.0625	1	32	96	660.9473684210526	92	675.5434782608696	3	213.33333333333334	1	0.375	431.75	290.625	370.3223684210526	296.125	1	32	96	638.0744680851063	94	638.0744680851063	0		2	0.46875	453.73333333333335	321.875	316.19946808510633	196.5625	1	32	96	811.2340425531914	93	818.7311827956989	1	114.0	2	0.3125	489.0	387.5	423.73404255319144	340.6875	1	32	96	489.61052631578946	93	494.48387096774195	2	263.0	1	0.53125	417.47058823529414	225.0	264.61052631578946	246.40625
17	1	64	192	582.5729166666666	187	587.336898395722	0		0	0.46875	553.8666666666667	275.265625	307.30729166666663	275.796875	0	32	96	560.4166666666666	92	566.054347826087	0		0	0.5	587.75	238.03125			1	32	96	604.7291666666666	95	607.9473684210526	0		0	0.4375	515.1428571428571	312.5	292.22916666666663	243.0625	1	32	96	571.9895833333334	93	579.4301075268817	0		0	0.46875	509.0	250.53125	321.45833333333337	281.0625	0	32	96	593.15625	94	595.1595744680851	0		0	0.46875	598.7333333333333	300.0		
18	1	64	192	670.187165775401	185	669.6540540540541	1	758.0	5	0.40625	527.6153846153846	309.640625	360.546540775401	281.953125	1	32	96	658.1789473684211	93	656.8602150537635	1	758.0	1	0.40625	498.61538461538464	284.375	373.80394736842106	306.0	1	32	96	682.5869565217391	92	682.5869565217391	0		4	0.40625	556.6153846153846	334.90625	347.6807065217391	261.4375	1	32	96	680.5591397849462	92	679.7173913043479	1	758.0	3	0.375	499.4166666666667	331.78125	348.7778897849462	267.59375	1	32	96	659.9255319148937	93	659.6989247311828	0		2	0.4375	551.7857142857143	287.5	372.42553191489367	300.5
19	1	64	192	660.937172774869	185	659.5567567567567	3	731.0	1	0.453125	559.7241379310345	320.5625	340.37467277486905	307.078125	1	32	96	675.8631578947368	92	672.054347826087	1	1013.0	1	0.4375	588.3571428571429	322.375	353.4881578947368	305.3125	1	32	96	646.1666666666666	93	647.1935483870968	2	590.0	0	0.46875	533.0	318.75	327.41666666666663	310.96875	1	32	96	642.5052631578948	93	643.6344086021505	2	590.0	1	0.46875	543.8666666666667	309.875	332.6302631578948	306.78125	1	32	96	679.1770833333334	92	675.6521739130435	1	1013.0	0	0.4375	576.7142857142857	331.25	347.92708333333337	307.75
20	1	64	192	693.6666666666666	67	749.2388059701492	7	933.8571428571429	5	0.578125	560.2608695652174	226.296875	385.7619485294117	487.125	0	32	96	699.3033707865169	20	758.1	5	943.8	1	0.5	761.6666666666666	231.75			1	32	96	687.0657894736842	47	745.468085106383	2	909.0	4	0.65625	430.7857142857143	220.84375	346.73233695652175	560.25	1	32	96	715.5824175824176	56	742.7142857142857	3	921.6666666666666	4	0.40625	699.5833333333334	325.0	382.804347826087	275.34375	1	32	96	666.7162162162163	11	782.4545454545455	4	943.0	1	0.75	408.27272727272725	127.59375	391.74309210526314	680.15625
21	1	32	96	562.8020833333334	95	559.0947368421052	1	915.0	0	0.53125	435.3529411764706	246.875	315.92708333333337	305.53125																																																								
22	1	64	192	652.9162303664922	186	657.8602150537635	1	311.0	1	0.515625	625.0	265.625	387.2912303664922	381.375	1	32	96	634.5729166666666	93	640.010752688172	1	311.0	0	0.5	618.875	246.875	387.69791666666663	384.125	1	32	96	671.4526315789474	93	675.7096774193549	0		1	0.53125	630.7647058823529	284.375	387.0776315789474	382.5625	1	32	96	655.4842105263158	92	659.0108695652174	1	311.0	1	0.5	566.625	300.0	355.4842105263158	341.5	0	32	96	650.375	94	656.7340425531914	0		0	0.53125	679.9411764705883	231.25		
23	1	64	192	635.9424083769634	183	642.2513661202186	8	491.625	1	0.4375	583.5	337.765625	298.1767833769634	243.234375	1	32	96	617.8229166666666	93	619.3333333333334	3	571.0	0	0.46875	553.9333333333333	338.03125	279.79166666666663	227.15625	1	32	96	654.2526315789473	90	665.9333333333333	5	444.0	1	0.40625	617.6153846153846	337.5	316.75263157894733	253.6875	0	32	96	605.0729166666666	92	614.5	4	388.25	0	0.4375	606.2857142857143	290.625			1	32	96	667.1368421052632	91	670.3076923076923	4	595.0	1	0.4375	560.7142857142857	384.90625	282.2305921052632	231.65625
26	1	64	192	732.9315789473684	189	734.973544973545	2	347.0	1	0.40625	628.7307692307693	409.65625	319.43799083769636	279.9375	1	32	96	745.2	95	745.2	1		0	0.375	630.9166666666666	455.6875	281.75	233.9375	1	32	96	720.6631578947369	94	724.6382978723404	1	347.0	1	0.4375	626.8571428571429	363.625	357.03815789473686	324.6875	1	32	96	731.125	95	735.1684210526316	1	347.0	0	0.375	668.75	412.5	318.625	281.125	1	32	96	734.7765957446809	94	734.7765957446809	1		1	0.4375	594.4285714285714	406.8125	320.22960526315785	268.0625
28	1	64	192	597.1693121693122	184	599.9239130434783	5	495.8	3	0.46875	516.6896551724138	275.796875	321.3724371693122	269.265625	1	32	96	602.2127659574468	93	603.5591397849462	1	477.0	2	0.46875	506.0	272.40625	329.8065159574468	285.65625	1	32	96	592.1789473684211	91	596.2087912087912	4	500.5	1	0.46875	528.1428571428571	279.1875	312.99144736842106	260.34375	1	32	96	611.4736842105264	93	613.3118279569892	2	526.0	1	0.4375	524.4285714285714	291.15625	320.31743421052636	271.09375	1	32	96	582.7127659574468	91	586.2417582417582	3	475.6666666666667	2	0.5	509.46666666666664	260.4375	322.2752659574468	270.0625
30	1	64	192	635.4594594594595	173	645.9005847953216	16	507.92857142857144	3	0.546875	545.4516129032259	273.265625	348.74495701058197	333.1875	1	32	96	657.421052631579	91	663.0888888888888	5	555.4	0	0.46875	606.4666666666667	312.5625	338.01041666666663	289.5625	1	32	96	612.2777777777778	82	626.8024691358024	11	481.55555555555554	3	0.625	488.25	233.96875	358.5581317204301	383.90625	1	32	96	641.0421052631579	86	649.0	9	565.0	1	0.4375	564.7142857142857	302.125	338.91710526315785	280.4375	1	32	96	629.5666666666667	87	642.7647058823529	7	405.2	2	0.65625	529.5882352941177	244.40625	358.3703457446809	431.28125
31	1	64	192	537.7894736842105	180	550.0842696629213	12	355.4166666666667	0	0.5	443.26666666666665	231.265625	300.921875	267.734375	1	32	96	555.2842105263157	90	577.2921348314607	6	228.83333333333334	0	0.5	477.2	234.90625	314.59375	264.09375	1	32	96	520.2947368421053	90	522.876404494382	6	482.0	0	0.5	409.3333333333333	227.625	287.25	271.875	1	32	96	511.2315789473684	87	523.9418604651163	9	389.77777777777777	0	0.5	342.46666666666664	223.46875	282.4375	255.03125	1	32	96	564.3473684210526	93	574.5217391304348	3	252.33333333333334	0	0.5	544.0666666666667	239.0625	319.40625	280.9375
33	1	64	192	796.1584699453551	173	793.4941176470588	14	831.0	5	0.390625	687.5	352.09375	427.0345922459893	367.90625	1	32	96	806.9560439560439	86	813.3764705882353	7	716.0	3	0.375	631.8333333333334	338.03125	451.57090053763443	402.09375	1	32	96	785.4782608695652	87	773.6117647058824	7	929.5714285714286	2	0.40625	743.1666666666666	366.15625	402.60970744680856	340.625	1	32	96	789.8297872340426	87	785.3908045977012	8	845.0	1	0.40625	721.8461538461538	369.8125	411.7032894736842	362.375	1	32	96	802.8426966292135	86	801.9879518072289	6	814.6666666666666	4	0.375	646.9090909090909	334.375	442.2880434782609	384.125
35	1	64	192	828.1059602649007	148	835.6875	8	672.1428571428571	36	0.453125	811.4285714285714	293.5	508.06410256410254	526.328125	1	32	96	799.6493506493506	76	802.0263157894736	1	619.0	19	0.5	798.4375	248.96875	550.6806006493506	617.53125	1	32	96	857.7162162162163	72	873.3088235294117	7	681.0	17	0.40625	828.75	338.03125	465.39912974683546	432.75	1	32	96	841.5526315789474	75	853.375	5	628.75	16	0.4375	820.4615384615385	387.5	411.975	383.1875	1	32	96	814.48	73	818.0	3	730.0	20	0.46875	803.6	199.5	604.2631578947369	654.59375
36	1	64	192	574.8066298342542	169	582.7926829268292	20	497.7647058823529	3	0.546875	544.0666666666667	186.234375	364.2418154761905	357.671875	1	32	96	570.0114942528736	79	584.5866666666667	14	478.9166666666667	3	0.53125	484.14285714285717	205.25	327.98655913978496	330.625	0	32	96	579.2446808510638	90	581.2808988764045	6	543.0	0	0.5625	596.5	167.21875			1	32	96	557.6136363636364	86	571.439024390244	8	368.6666666666667	2	0.59375	537.1333333333333	183.90625	338.11502659574467	377.375	1	32	96	591.0752688172043	83	594.1463414634146	12	568.1818181818181	1	0.5	551.0	188.5625	390.06907894736844	349.9375
37	1	64	192	699.0947368421052	183	704.1803278688525	2	662.0	2	0.40625	595.7307692307693	375.796875	323.29786184210525	265.203125	1	32	96	703.6105263157895	91	709.8461538461538	1	764.0	1	0.4375	568.7142857142857	362.5	341.11052631578946	307.125	1	32	96	694.578947368421	92	698.5760869565217	1	560.0	1	0.375	627.25	389.09375	305.48519736842104	227.15625	1	32	96	698.0421052631579	91	701.8571428571429	1	560.0	1	0.4375	574.1428571428571	363.5625	334.47960526315785	284.5625	1	32	96	700.1473684210526	92	706.4782608695652	1	764.0	1	0.375	620.9166666666666	388.03125	312.11611842105265	240.96875
38	1	64	192	682.234375	192	682.234375	0		0	0.40625	593.2692307692307	360.15625	322.078125	273.8125	1	32	96	727.96875	96	727.96875	0		0	0.375	635.6666666666666	413.5625	314.40625	264.3125	1	32	96	636.5	96	636.5	0		0	0.4375	556.9285714285714	306.75	329.75	267.0625	1	32	96	639.4895833333334	96	639.4895833333334	0		0	0.40625	557.0	363.03125	276.45833333333337	240.96875	1	32	96	724.9791666666666	96	724.9791666666666	0		0	0.40625	629.5384615384615	357.28125	367.69791666666663	304.46875
39	1	64	192	593.8191489361702	159	621.5796178343949	2	785.5	1	0.71875	547.304347826087	122.15625	462.3358965968587	569.53125	1	32	96	583.5212765957447	81	613.1772151898734	2	785.5	0	0.75	540.5833333333334	121.90625	449.45833333333337	578.34375	1	32	96	604.1170212765958	78	630.0897435897435	0		1	0.6875	554.6363636363636	122.40625	475.3516447368421	564.84375	1	32	96	591.6276595744681	74	621.6351351351351	1	1158.0	1	0.84375	545.5555555555555	94.8125	490.5875	742.1875	1	32	96	596.0106382978723	85	621.5301204819277	1	413.0	0	0.59375	549.7894736842105	149.5	434.09375	474.15625
40	1	64	192	807.3298429319372	191	807.3298429319372	0		1	0.359375	607.7391304347826	396.875	410.45484293193715	307.046875	1	32	96	807.5894736842105	95	807.5894736842105	0		1	0.375	589.75	393.75	413.8394736842105	318.25	1	32	96	807.0729166666666	96	807.0729166666666	0		0	0.34375	627.3636363636364	400.0	407.07291666666663	286.96875	1	32	96	801.6842105263158	95	801.6842105263158	0		1	0.375	585.3333333333334	390.625	411.05921052631584	313.25	1	32	96	812.9166666666666	96	812.9166666666666	0		0	0.34375	632.1818181818181	403.125	409.79166666666663	302.09375
41	1	64	192	420.36315789473684	161	442.0807453416149	0		0	0.84375	397.8888888888889	98.484375	317.5	449.453125	0	32	96	428.13829787234044	78	449.28205128205127	0		0	0.90625	428.41379310344826	91.65625			1	32	96	412.75	83	435.31325301204816	0		0	0.78125	362.48	105.3125	307.4375	385.53125	1	32	96	421.7578947368421	82	441.3048780487805	0		0	0.9375	373.6333333333333	89.65625	327.7083333333333	584.65625	0	32	96	418.9684210526316	79	442.88607594936707	0		0	0.75	428.2083333333333	107.3125		
43	1	64	192	497.8020833333333	184	503.58152173913044	0		0	0.546875	434.37142857142857	181.0	316.8020833333333	297.0	1	32	96	476.1458333333333	93	481.7741935483871	0		0	0.59375	449.94736842105266	143.25	332.8958333333333	324.15625	1	32	96	519.4583333333334	91	525.8681318681319	0		0	0.5	415.875	218.75	300.70833333333337	288.25	1	32	96	483.1458333333333	90	489.72222222222223	0		0	0.5625	413.5	152.09375	331.0520833333333	328.65625	1	32	96	512.4583333333334	94	516.8510638297872	0		0	0.53125	456.47058823529414	209.90625	302.55208333333337	267.09375
45	1	32	96	650.125	95	648.8315789473684	1	773.0	0	0.375	582.5833333333334	388.03125	262.09375	192.59375																																																								
47	1	32	96	642.59375	95	645.6105263157895	1	356.0	0	0.46875	541.6666666666666	334.90625	307.6875	268.15625																																																								
48	1	32	96	664.8791208791209	87	666.9885057471264	3	669.3333333333334	5	0.46875	600.8666666666667	350.53125	314.34787087912093	298.0																																																								
49	1	64	192	610.718085106383	184	614.4891304347826	2	369.5	3	0.421875	514.3333333333334	311.515625	295.97114748677245	239.0625	1	32	96	638.3763440860215	91	643.0769230769231	1	330.0	3	0.4375	488.2142857142857	299.5625	338.8138440860215	304.625	1	32	96	583.6421052631579	93	586.516129032258	1	409.0	0	0.40625	542.4615384615385	323.46875	254.09375	208.71875	1	32	96	577.9569892473119	92	578.5978260869565	0		3	0.4375	498.5	308.9375	269.01948924731187	213.625	1	32	96	642.7894736842105	92	650.3804347826087	2	369.5	0	0.40625	531.3846153846154	314.09375	322.0	250.25
52	1	64	192	834.0346820809249	156	849.9038461538462	17	688.4117647058823	19	0.328125	717.0	407.890625	426.1440570809249	316.125	1	32	96	799.9111111111112	85	798.0470588235294	5	831.6	6	0.34375	677.1	379.78125	420.12986111111115	317.1875	1	32	96	871.0361445783133	71	911.9859154929577	12	628.75	13	0.3125	756.9	436.0	435.03614457831327	303.8125	1	32	96	809.5222222222222	79	831.4177215189874	11	652.2727272727273	6	0.3125	725.4	437.0625	372.45972222222224	243.4375	1	32	96	860.6144578313254	77	868.8701298701299	6	754.6666666666666	13	0.34375	708.6	378.71875	481.89570783132535	372.90625
55	1	64	192	521.5729166666666	185	529.1405405405405	5	275.6	0	0.484375	462.7741935483871	281.515625	240.05729166666663	220.03125	1	32	96	490.625	92	499.35869565217394	3	297.3333333333333	0	0.5	456.9375	263.03125	227.59375	209.96875	1	32	96	552.5208333333334	93	558.6021505376344	2	243.0	0	0.46875	469.0	300.0	252.52083333333337	213.53125	1	32	96	522.9166666666666	93	530.8172043010753	3	278.0	0	0.5	449.8125	275.53125	247.38541666666663	238.96875	1	32	96	520.2291666666666	92	527.445652173913	2	272.0	0	0.46875	476.6	287.5	232.72916666666663	208.03125
56	1	32	96	584.6666666666666	96	584.6666666666666	0		0	0.5	517.0625	346.875	237.79166666666663	204.125																																																								
58	1	64	192	782.8115183246073	188	781.6329787234042	3	856.6666666666666	1	0.328125	648.0952380952381	439.640625	343.1708933246073	270.703125	1	32	96	762.4166666666666	96	762.4166666666666	0		0	0.34375	648.7272727272727	448.5	313.91666666666663	237.15625	1	32	96	803.421052631579	92	801.6847826086956	3	856.6666666666666	1	0.3125	647.4	430.78125	372.63980263157896	298.59375	1	32	96	761.1789473684211	95	761.1789473684211	0		1	0.375	620.75	440.71875	320.46019736842106	278.03125	1	32	96	804.21875	93	802.5268817204301	3	856.6666666666666	0	0.28125	684.5555555555555	438.5625	365.65625	247.15625
68	1	64	192	816.1016949152543	173	816.121387283237	1	1170.0	15	0.390625	720.04	362.765625	453.33606991525426	363.234375	1	32	96	840.3483146067416	86	838.3953488372093	1	1170.0	7	0.34375	645.0	384.90625	455.4420646067416	344.375	1	32	96	791.5795454545455	87	794.1034482758621	0		8	0.4375	779.0	340.625	450.9545454545455	379.9375	1	32	96	838.5222222222222	88	837.3522727272727	1	1170.0	6	0.40625	731.2307692307693	300.0	538.5222222222222	444.71875	1	32	96	792.9080459770115	85	794.1411764705882	0		9	0.375	707.9166666666666	425.53125	367.3767959770115	293.96875
69	1	64	192	696.2486486486487	136	748.0592592592593	44	554.5909090909091	4	0.71875	689.304347826087	172.671875	512.4664228723404	610.453125	0	32	96	697.3586956521739	70	737.1714285714286	19	575.9473684210526	2	0.71875	744.8260869565217	169.8125			1	32	96	695.1505376344086	66	759.7846153846153	25	538.36	2	0.71875	633.7826086956521	175.53125	512.2240691489362	639.5625	0	32	96	698.3695652173913	66	748.530303030303	23	562.8260869565217	2	0.78125	700.0	163.03125			1	32	96	694.1505376344086	70	747.6086956521739	21	545.5714285714286	2	0.65625	676.5714285714286	182.3125	504.45345744680856	564.71875
70	1	64	192	569.0894736842105	173	581.6127167630058	13	448.46153846153845	2	0.515625	556.0	260.9375	308.1519736842105	277.546875	1	32	96	566.6979166666666	85	584.4823529411765	8	447.125	0	0.53125	547.4117647058823	287.5	279.19791666666663	257.96875	1	32	96	571.531914893617	88	578.8409090909091	5	450.6	2	0.5	565.125	234.375	337.156914893617	301.125	0	32	96	569.78125	86	583.3139534883721	8	449.625	0	0.5625	595.8333333333334	234.375			1	32	96	568.3829787234042	87	579.9310344827586	5	446.6	2	0.46875	508.2	287.5	280.8829787234042	233.5625
71	1	64	192	446.29787234042556	146	459.22758620689655	2	362.5	0	0.75	407.780487804878	135.96875	301.03125	388.03125	1	32	96	483.0531914893617	75	503.31081081081084	0		0	0.75	430.0869565217391	160.96875	312.0208333333333	378.28125	1	32	96	409.5425531914894	71	413.28169014084506	2	362.5	0	0.75	379.27777777777777	110.96875	290.0416666666667	374.28125	1	32	96	434.8804347826087	68	444.86567164179104	2	362.5	0	0.84375	394.9047619047619	104.71875	312.0416666666667	448.75	1	32	96	457.2395833333333	78	471.56410256410254	0		0	0.65625	421.3	167.21875	290.0208333333333	326.5
73	1	64	192	738.109375	191	739.0575916230366	1	557.0	0	0.390625	624.84	414.59375	323.515625	265.671875	1	32	96	719.0833333333334	96	719.0833333333334	0		0	0.34375	643.7272727272727	413.03125	306.05208333333337	223.625	1	32	96	757.1354166666666	95	759.2421052631579	1	557.0	0	0.4375	610.0	416.15625	340.97916666666663	308.03125	1	32	96	710.6145833333334	96	710.6145833333334	0		0	0.40625	580.2307692307693	400.0	310.61458333333337	254.375	1	32	96	765.6041666666666	95	767.8	1	557.0	0	0.375	673.1666666666666	429.1875	336.41666666666663	259.4375
74	0	64	192	648.2315789473685	186	647.0322580645161	3	812.3333333333334	2	0.421875	650.9629629629629	337.5			1	32	96	671.4315789473684	91	670.0	3	812.3333333333334	1	0.40625	617.7692307692307	371.875	299.5565789473684	207.125	0	32	96	625.0315789473684	95	625.0315789473684	0		1	0.4375	681.7857142857143	303.125			1	32	96	666.625	93	668.8709677419355	2	706.0	0	0.40625	624.7692307692307	300.0	366.625	279.0	0	32	96	629.4468085106383	93	625.1935483870968	1	1025.0	2	0.4375	675.2857142857143	375.0		
75	1	64	192	433.6951871657754	155	464.63576158940396	6	296.0	0	0.71875	331.7608695652174	148.203125	274.1979166666667	380.078125	1	32	96	493.38947368421054	87	499.9651162790698	1	365.0	0	0.5625	416.5	190.625	297.625	319.5625	1	32	96	372.05434782608694	68	417.89230769230767	5	282.2	0	0.875	277.2857142857143	105.78125	250.77083333333331	443.09375	1	32	96	401.2659574468085	71	440.42028985507244	2	287.5	0	0.8125	307.6923076923077	131.28125	261.625	431.96875	1	32	96	466.4731182795699	84	485.0121951219512	4	300.25	0	0.625	363.05	165.125	286.7708333333333	339.125
77	0	64	192	512.9337016574585	155	547.6644736842105	1	865.0	7	0.9375	527.7118644067797	88.0625			0	32	96	541.5483870967741	81	581.3375	0		2	0.90625	546.5862068965517	89.625			0	32	96	482.6931818181818	74	510.25	1	865.0	5	0.96875	509.46666666666664	86.5			0	32	96	506.23595505617976	75	539.3108108108108	1	865.0	5	0.96875	532.741935483871	86.0			0	32	96	519.4130434782609	80	555.5897435897435	0		2	0.90625	522.1428571428571	90.125		
78	1	64	192	694.9465240641712	181	698.1229050279329	4	690.75	3	0.40625	570.72	336.203125	351.3894675925926	292.390625	1	32	96	676.7446808510638	88	681.7159090909091	2	697.5	2	0.4375	540.0	318.75	357.9946808510638	303.8125	1	32	96	713.3440860215054	93	713.989010989011	2	684.0	1	0.375	604.0	353.65625	344.6700657894737	276.59375	1	32	96	708.6276595744681	92	703.2391304347826	2	956.5	2	0.40625	597.25	338.03125	370.5964095744681	315.5625	1	32	96	681.1182795698925	89	692.7126436781609	2	425.0	1	0.40625	546.2307692307693	334.375	332.4039473684211	286.21875
80	1	64	192	475.71875	188	478.8085106382979	1	503.0	0	0.546875	435.85714285714283	226.828125	248.890625	239.625	1	32	96	477.15625	94	479.06382978723406	1	503.0	0	0.53125	402.8235294117647	256.25	220.90625	210.75	1	32	96	474.28125	94	478.5531914893617	0		0	0.5625	467.05555555555554	197.40625	276.875	260.90625	1	32	96	462.9270833333333	94	468.40425531914894	0		0	0.59375	430.7894736842105	234.90625	228.02083333333331	232.125	1	32	96	488.5104166666667	94	489.21276595744683	1	503.0	0	0.5	441.875	218.75	269.7604166666667	247.75
83	1	64	192	903.4126984126984	175	907.5485714285714	10	851.8	3	0.390625	755.0	392.1875	511.22519841269843	458.8125	1	32	96	896.5473684210526	87	897.5057471264367	5	940.8	1	0.375	746.9166666666666	365.625	530.9223684210526	483.0	1	32	96	910.3510638297872	88	917.4772727272727	5	762.8	2	0.40625	762.4615384615385	418.75	491.6010638297872	432.25	1	32	96	857.3473684210526	86	854.3255813953489	8	893.375	1	0.34375	757.2727272727273	412.5	444.8473684210526	398.46875	1	32	96	949.968085106383	89	958.9775280898876	2	685.5	2	0.4375	753.2142857142857	371.875	578.093085106383	559.125
84	1	64	192	528.3350785340314	186	530.8333333333334	2	479.0	1	0.484375	441.7096774193548	264.0625	264.27257853403137	224.453125	1	32	96	509.6666666666667	94	514.2978723404256	1	236.0	0	0.46875	423.8666666666667	275.0	234.66666666666669	186.59375	1	32	96	547.2	92	547.7282608695652	1	722.0	1	0.5	458.4375	253.125	294.07500000000005	249.875	1	32	96	510.875	94	514.0	1	236.0	0	0.5	436.6875	281.25	229.625	184.75	1	32	96	545.978947368421	92	548.0326086956521	1	722.0	1	0.46875	447.06666666666666	246.875	299.103947368421	253.1875
89	1	64	192	613.09375	189	610.7936507936508	3	758.0	0	0.453125	544.6206896551724	357.046875	256.046875	221.046875	1	32	96	623.1354166666666	94	619.3510638297872	2	801.0	0	0.5	556.125	322.9375	300.19791666666663	266.5625	1	32	96	603.0520833333334	95	602.3263157894737	1	672.0	0	0.40625	530.4615384615385	391.15625	211.89583333333337	172.03125	1	32	96	605.3020833333334	94	598.5744680851063	2	921.5	0	0.46875	536.6	354.71875	250.58333333333337	229.8125	1	32	96	620.8854166666666	95	622.8842105263158	1	431.0	0	0.4375	553.2142857142857	359.375	261.51041666666663	207.625
90	1	64	192	533.1243243243243	154	581.2597402597403	4	478.75	4	0.5625	385.51428571428573	253.90625	270.7107712765958	281.84375	1	32	96	479.6043956043956	64	568.9375	2	559.5	2	0.6875	309.14285714285717	189.0625	275.23537234042556	403.25	1	32	96	584.936170212766	90	590.0222222222222	2	398.0	2	0.4375	500.07142857142856	318.75	266.186170212766	168.8125	1	32	96	574.5591397849462	84	593.1904761904761	3	476.3333333333333	3	0.4375	480.84615384615387	290.625	283.9341397849462	195.375	1	32	96	491.2391304347826	70	566.9428571428572	1	486.0	1	0.6875	329.1818181818182	217.1875	258.5388157894737	362.4375
93	1	64	192	731.1081081081081	176	736.7428571428571	1	1174.0	6	0.453125	515.1785714285714	296.625	430.55241935483866	370.5625	1	32	96	689.7777777777778	85	700.3095238095239	0		5	0.5625	502.7647058823529	245.84375	436.35405219780216	429.78125	1	32	96	770.2631578947369	91	770.3736263736264	1	1174.0	1	0.34375	534.3636363636364	347.40625	422.8569078947369	315.1875	1	32	96	773.8387096774194	91	771.4222222222222	0		2	0.4375	502.9230769230769	328.125	437.48138297872345	360.9375	1	32	96	687.9130434782609	85	700.0235294117647	1	1174.0	4	0.46875	525.8	265.125	422.7880434782609	357.9375
94	1	64	192	654.1242937853108	169	668.7222222222222	3	767.3333333333334	3	0.453125	613.2272727272727	270.609375	341.9832175925926	331.03125	1	32	96	648.6813186813187	89	653.448275862069	1	746.0	1	0.40625	609.4545454545455	274.0	347.36842105263156	297.375	1	32	96	659.8837209302326	80	686.44	2	778.0	2	0.5	617.0	267.21875	336.5046542553191	388.28125	0	32	96	673.065934065934	88	682.1071428571429	2	734.5	0	0.40625	698.8888888888889	332.84375			1	32	96	634.0813953488372	81	654.3076923076923	1	833.0	3	0.5	553.9230769230769	208.375	377.97983870967744	371.625
95	1	64	192	765.5133689839572	187	766.2849462365591	0		0	0.34375	644.4090909090909	386.203125	359.375	260.109375	1	32	96	776.5268817204301	93	776.5268817204301	0		0	0.34375	626.5454545454545	356.25	396.01041666666663	292.0625	1	32	96	754.6170212765958	94	756.0430107526881	0		0	0.34375	662.2727272727273	416.15625	322.73958333333337	228.84375	1	32	96	809.6344086021505	93	811.6739130434783	0		0	0.34375	700.0	425.0	359.33333333333337	264.625	1	32	96	721.8617021276596	94	721.8617021276596	0		0	0.34375	588.8181818181819	347.40625	359.41666666666663	273.25
96	1	64	192	429.08947368421053	170	446.7	1	582.0	2	0.671875	387.1904761904762	165.109375	263.98009868421053	299.53125	0	32	96	435.11578947368423	84	456.6666666666667	1	582.0	1	0.65625	437.23809523809524	176.5625			1	32	96	423.06315789473683	86	436.9651162790698	0		1	0.6875	337.14285714285717	153.65625	269.40690789473683	308.84375	1	32	96	416.2291666666667	84	437.79761904761904	0		0	0.625	398.55	206.25	209.97916666666669	251.75	1	32	96	442.22340425531917	86	455.3953488372093	1	582.0	2	0.71875	376.8636363636364	123.96875	318.25465425531917	366.03125
101	1	64	192	480.0052356020942	174	486.8554913294798	2	298.0	0	0.65625	430.8780487804878	135.953125	341.5520833333333	366.734375	1	32	96	497.46875	84	505.4404761904762	1	306.0	0	0.65625	431.75	125.53125	371.9375	401.53125	1	32	96	462.3578947368421	90	469.314606741573	1	290.0	0	0.65625	430.04761904761904	146.375	311.1666666666667	332.6875	1	32	96	487.7083333333333	86	492.0581395348837	1	290.0	0	0.59375	450.63157894736844	157.8125	329.8958333333333	336.40625	1	32	96	472.22105263157897	88	481.71264367816093	1	306.0	0	0.71875	413.8181818181818	114.09375	353.2083333333333	407.875
103	1	64	192	622.5135135135135	158	645.891719745223	3	808.3333333333334	4	0.84375	558.6862745098039	96.984375	515.5954122340426	804.734375	1	32	96	585.763440860215	80	593.25	1	1330.0	3	0.75	519.5833333333334	103.1875	482.57594086021504	567.5625	1	32	96	659.6630434782609	78	700.5844155844156	2	547.5	1	0.9375	593.4444444444445	90.78125	548.0503289473684	1047.03125	1	32	96	663.1182795698925	83	674.5903614457832	1	641.0	3	0.84375	534.7407407407408	95.40625	567.7120295698925	939.0625	0	32	96	581.4673913043479	75	613.7027027027027	2	892.0	1	0.84375	585.625	98.5625		
104	1	64	192	654.6230366492147	179	665.1284916201117	3	814.6666666666666	1	0.625	637.575	205.484375	449.13866164921467	490.265625	0	32	96	610.4947368421052	88	624.7045454545455	1	593.0	1	0.71875	649.3478260869565	131.78125			1	32	96	698.2916666666666	91	704.2197802197802	2	925.5	0	0.53125	621.6470588235294	279.1875	419.10416666666663	416.75	1	32	96	638.6315789473684	89	653.2471910112359	0		1	0.625	615.9	167.71875	470.91282894736844	515.53125	1	32	96	670.4479166666666	90	676.8777777777777	3	814.6666666666666	0	0.625	659.25	243.25	427.19791666666663	472.5
106	1	64	192	681.7150537634409	149	699.6598639455782	12	543.1818181818181	3	0.46875	640.5862068965517	269.28125	401.61292989417984	384.90625	0	32	96	650.063829787234	78	673.3116883116883	3	492.0	1	0.46875	660.5333333333333	250.53125			1	32	96	714.054347826087	71	728.6428571428571	9	562.375	2	0.46875	619.2142857142857	288.03125	410.83045212765956	385.8125	1	32	96	622.6489361702128	77	651.6184210526316	3	284.0	1	0.46875	543.4	237.5	378.59473684210525	361.5	0	32	96	742.0652173913044	72	751.0845070422536	9	640.375	2	0.46875	744.7142857142857	301.0625		
107	1	64	192	790.6647727272727	167	801.5748502994012	1	751.0	16	0.359375	706.0869565217391	392.453125	398.21164772727275	324.546875	1	32	96	848.2093023255813	82	858.609756097561	0		10	0.375	662.1666666666666	350.0	498.20930232558135	392.75	0	32	96	735.6777777777778	85	746.5529411764705	1	751.0	6	0.34375	754.0	434.90625			1	32	96	778.5113636363636	84	786.9047619047619	1	751.0	8	0.40625	694.5384615384615	396.875	381.6363636363636	323.5	1	32	96	802.8181818181819	83	816.4216867469879	0		8	0.3125	721.1	388.03125	414.78693181818187	323.40625
