sub	all_racehorse_check	all_n_stop_trials	all_n_go_trials	all_go_rt	all_n_go_cor	all_go_cor_rt	all_n_go_error	all_go_error_rt	all_n_go_miss	all_stop_prob_resp	all_us_rt	all_ssd	all_ssrt_mean	all_ssrt_int	h_ed_racehorse_check	h_ed_n_stop_trials	h_ed_n_go_trials	h_ed_go_rt	h_ed_n_go_cor	h_ed_go_cor_rt	h_ed_n_go_error	h_ed_go_error_rt	h_ed_n_go_miss	h_ed_stop_prob_resp	h_ed_us_rt	h_ed_ssd	h_ed_ssrt_mean	h_ed_ssrt_int	l_ed_racehorse_check	l_ed_n_stop_trials	l_ed_n_go_trials	l_ed_go_rt	l_ed_n_go_cor	l_ed_go_cor_rt	l_ed_n_go_error	l_ed_go_error_rt	l_ed_n_go_miss	l_ed_stop_prob_resp	l_ed_us_rt	l_ed_ssd	l_ed_ssrt_mean	l_ed_ssrt_int	l_port_racehorse_check	l_port_n_stop_trials	l_port_n_go_trials	l_port_go_rt	l_port_n_go_cor	l_port_go_cor_rt	l_port_n_go_error	l_port_go_error_rt	l_port_n_go_miss	l_port_stop_prob_resp	l_port_us_rt	l_port_ssd	l_port_ssrt_mean	l_port_ssrt_int	s_port_racehorse_check	s_port_n_stop_trials	s_port_n_go_trials	s_port_go_rt	s_port_n_go_cor	s_port_go_cor_rt	s_port_n_go_error	s_port_go_error_rt	s_port_n_go_miss	s_port_stop_prob_resp	s_port_us_rt	s_port_ssd	s_port_ssrt_mean	s_port_ssrt_int
1	1	64	192	823.439	184	827.413	5	677.2	3	0.391	592.4	396.859	426.58	355.797	1.0	32.0	96.0	790.284	92.0	795.848	3.0	619.667	1.0	0.438	534.714	372.844	417.44	373.281	1.0	32.0	96.0	856.947	92.0	858.978	2.0	763.5	2.0	0.344	665.818	420.875	436.072	337.781	1.0	32.0	96.0	828.26	92.0	837.337	4.0	619.5	0.0	0.344	632.182	373.938	454.323	338.969	1.0	32.0	96.0	818.462	92.0	817.489	1.0	908.0	3.0	0.438	561.143	419.781	398.681	364.031
4	1	64	192	774.777	185	774.795	3	773.667	4	0.438	621.63	315.109	459.667	371.578	1.0	32.0	96.0	766.792	95.0	764.074	1.0	1025.0	0.0	0.438	598.143	302.062	464.729	355.75	1.0	32.0	96.0	783.109	90.0	786.111	2.0	648.0	4.0	0.438	646.923	328.156	454.952	364.844	1.0	32.0	96.0	766.684	94.0	768.83	1.0	565.0	1.0	0.406	589.538	338.031	428.653	327.969	1.0	32.0	96.0	783.043	91.0	780.956	2.0	878.0	3.0	0.469	651.429	292.188	490.856	406.938
5	1	64	192	639.172	179	647.469	13	524.923	0	0.484	579.935	241.766	397.406	366.266	0.0	32.0	96.0	621.354	89.0	634.888	7.0	449.286	0.0	0.438	644.286	229.781			1.0	32.0	96.0	656.99	90.0	659.911	6.0	613.167	0.0	0.531	526.941	253.75	403.24	371.531	1.0	32.0	96.0	638.635	89.0	643.472	7.0	577.143	0.0	0.5	637.062	275.094	363.542	334.406	1.0	32.0	96.0	639.708	90.0	651.422	6.0	464.0	0.0	0.469	519.0	208.438	431.271	397.281
6	0	64	192	672.603	172	671.071	6	737.75	14	0.469	677.103	282.0			0.0	32.0	96.0	665.057	85.0	665.906	2.0	629.0	9.0	0.5	719.6	272.812			1.0	32.0	96.0	680.149	87.0	676.235	4.0	846.5	5.0	0.438	631.571	291.188	359.065	297.5	1.0	32.0	96.0	754.407	79.0	755.462	5.0	727.0	12.0	0.438	726.0	311.438	416.027	350.375	0.0	32.0	96.0	601.355	93.0	599.522	1.0	770.0	2.0	0.5	637.375	252.562		
7	1	32	96	834.811	87	832.747	3	894.667	6	0.5	758.562	290.594	544.217	563.906																																																								
11	1	64	192	649.571	186	656.608	3	213.333	3	0.422	443.963	306.25	343.321	227.062	1.0	32.0	96.0	660.947	92.0	675.543	3.0	213.333	1.0	0.375	431.75	290.625	370.322	296.125	1.0	32.0	96.0	638.074	94.0	638.074	0.0		2.0	0.469	453.733	321.875	316.199	196.562	1.0	32.0	96.0	811.234	93.0	818.731	1.0	114.0	2.0	0.312	489.0	387.5	423.734	340.688	1.0	32.0	96.0	489.611	93.0	494.484	2.0	263.0	1.0	0.531	417.471	225.0	264.611	246.406
17	1	64	192	582.573	187	587.337	0		0	0.469	553.867	275.266	307.307	275.797	0.0	32.0	96.0	560.417	92.0	566.054	0.0		0.0	0.5	587.75	238.031			1.0	32.0	96.0	604.729	95.0	607.947	0.0		0.0	0.438	515.143	312.5	292.229	243.062	1.0	32.0	96.0	571.99	93.0	579.43	0.0		0.0	0.469	509.0	250.531	321.458	281.062	0.0	32.0	96.0	593.156	94.0	595.16	0.0		0.0	0.469	598.733	300.0		
18	1	64	192	670.187	185	669.654	1	758.0	5	0.406	527.615	309.641	360.547	281.953	1.0	32.0	96.0	658.179	93.0	656.86	1.0	758.0	1.0	0.406	498.615	284.375	373.804	306.0	1.0	32.0	96.0	682.587	92.0	682.587	0.0		4.0	0.406	556.615	334.906	347.681	261.438	1.0	32.0	96.0	680.559	92.0	679.717	1.0	758.0	3.0	0.375	499.417	331.781	348.778	267.594	1.0	32.0	96.0	659.926	93.0	659.699	0.0		2.0	0.438	551.786	287.5	372.426	300.5
19	1	64	192	660.937	185	659.557	3	731.0	1	0.453	559.724	320.562	340.375	307.078	1.0	32.0	96.0	675.863	92.0	672.054	1.0	1013.0	1.0	0.438	588.357	322.375	353.488	305.312	1.0	32.0	96.0	646.167	93.0	647.194	2.0	590.0	0.0	0.469	533.0	318.75	327.417	310.969	1.0	32.0	96.0	642.505	93.0	643.634	2.0	590.0	1.0	0.469	543.867	309.875	332.63	306.781	1.0	32.0	96.0	679.177	92.0	675.652	1.0	1013.0	0.0	0.438	576.714	331.25	347.927	307.75
20	1	64	192	693.667	67	749.239	7	933.857	5	0.578	560.261	226.297	385.762	487.125	0.0	32.0	96.0	699.303	20.0	758.1	5.0	943.8	1.0	0.5	761.667	231.75			1.0	32.0	96.0	687.066	47.0	745.468	2.0	909.0	4.0	0.656	430.786	220.844	346.732	560.25	1.0	32.0	96.0	715.582	56.0	742.714	3.0	921.667	4.0	0.406	699.583	325.0	382.804	275.344	1.0	32.0	96.0	666.716	11.0	782.455	4.0	943.0	1.0	0.75	408.273	127.594	391.743	680.156
21	1	32	96	562.802	95	559.095	1	915.0	0	0.531	435.353	246.875	315.927	305.531																																																								
22	1	64	192	652.916	186	657.86	1	311.0	1	0.516	625.0	265.625	387.291	381.375	1.0	32.0	96.0	634.573	93.0	640.011	1.0	311.0	0.0	0.5	618.875	246.875	387.698	384.125	1.0	32.0	96.0	671.453	93.0	675.71	0.0		1.0	0.531	630.765	284.375	387.078	382.562	1.0	32.0	96.0	655.484	92.0	659.011	1.0	311.0	1.0	0.5	566.625	300.0	355.484	341.5	0.0	32.0	96.0	650.375	94.0	656.734	0.0		0.0	0.531	679.941	231.25		
23	1	64	192	635.942	183	642.251	8	491.625	1	0.438	583.5	337.766	298.177	243.234	1.0	32.0	96.0	617.823	93.0	619.333	3.0	571.0	0.0	0.469	553.933	338.031	279.792	227.156	1.0	32.0	96.0	654.253	90.0	665.933	5.0	444.0	1.0	0.406	617.615	337.5	316.753	253.688	0.0	32.0	96.0	605.073	92.0	614.5	4.0	388.25	0.0	0.438	606.286	290.625			1.0	32.0	96.0	667.137	91.0	670.308	4.0	595.0	1.0	0.438	560.714	384.906	282.231	231.656
26	1	64	192	732.932	189	734.974	2	347.0	1	0.406	628.731	409.656	319.438	279.938	1.0	32.0	96.0	745.2	95.0	745.2	1.0		0.0	0.375	630.917	455.688	281.75	233.938	1.0	32.0	96.0	720.663	94.0	724.638	1.0	347.0	1.0	0.438	626.857	363.625	357.038	324.688	1.0	32.0	96.0	731.125	95.0	735.168	1.0	347.0	0.0	0.375	668.75	412.5	318.625	281.125	1.0	32.0	96.0	734.777	94.0	734.777	1.0		1.0	0.438	594.429	406.812	320.23	268.062
28	1	64	192	597.169	184	599.924	5	495.8	3	0.469	516.69	275.797	321.372	269.266	1.0	32.0	96.0	602.213	93.0	603.559	1.0	477.0	2.0	0.469	506.0	272.406	329.807	285.656	1.0	32.0	96.0	592.179	91.0	596.209	4.0	500.5	1.0	0.469	528.143	279.188	312.991	260.344	1.0	32.0	96.0	611.474	93.0	613.312	2.0	526.0	1.0	0.438	524.429	291.156	320.317	271.094	1.0	32.0	96.0	582.713	91.0	586.242	3.0	475.667	2.0	0.5	509.467	260.438	322.275	270.062
30	1	64	192	635.459	173	645.901	16	507.929	3	0.547	545.452	273.266	348.745	333.188	1.0	32.0	96.0	657.421	91.0	663.089	5.0	555.4	0.0	0.469	606.467	312.562	338.01	289.562	1.0	32.0	96.0	612.278	82.0	626.802	11.0	481.556	3.0	0.625	488.25	233.969	358.558	383.906	1.0	32.0	96.0	641.042	86.0	649.0	9.0	565.0	1.0	0.438	564.714	302.125	338.917	280.438	1.0	32.0	96.0	629.567	87.0	642.765	7.0	405.2	2.0	0.656	529.588	244.406	358.37	431.281
31	1	64	192	537.789	180	550.084	12	355.417	0	0.5	443.267	231.266	300.922	267.734	1.0	32.0	96.0	555.284	90.0	577.292	6.0	228.833	0.0	0.5	477.2	234.906	314.594	264.094	1.0	32.0	96.0	520.295	90.0	522.876	6.0	482.0	0.0	0.5	409.333	227.625	287.25	271.875	1.0	32.0	96.0	511.232	87.0	523.942	9.0	389.778	0.0	0.5	342.467	223.469	282.438	255.031	1.0	32.0	96.0	564.347	93.0	574.522	3.0	252.333	0.0	0.5	544.067	239.062	319.406	280.938
33	1	64	192	796.158	173	793.494	14	831.0	5	0.391	687.5	352.094	427.035	367.906	1.0	32.0	96.0	806.956	86.0	813.376	7.0	716.0	3.0	0.375	631.833	338.031	451.571	402.094	1.0	32.0	96.0	785.478	87.0	773.612	7.0	929.571	2.0	0.406	743.167	366.156	402.61	340.625	1.0	32.0	96.0	789.83	87.0	785.391	8.0	845.0	1.0	0.406	721.846	369.812	411.703	362.375	1.0	32.0	96.0	802.843	86.0	801.988	6.0	814.667	4.0	0.375	646.909	334.375	442.288	384.125
35	1	64	192	828.106	148	835.688	8	672.143	36	0.453	811.429	293.5	508.064	526.328	1.0	32.0	96.0	799.649	76.0	802.026	1.0	619.0	19.0	0.5	798.438	248.969	550.681	617.531	1.0	32.0	96.0	857.716	72.0	873.309	7.0	681.0	17.0	0.406	828.75	338.031	465.399	432.75	1.0	32.0	96.0	841.553	75.0	853.375	5.0	628.75	16.0	0.438	820.462	387.5	411.975	383.188	1.0	32.0	96.0	814.48	73.0	818.0	3.0	730.0	20.0	0.469	803.6	199.5	604.263	654.594
36	1	64	192	574.807	169	582.793	20	497.765	3	0.547	544.067	186.234	364.242	357.672	1.0	32.0	96.0	570.011	79.0	584.587	14.0	478.917	3.0	0.531	484.143	205.25	327.987	330.625	0.0	32.0	96.0	579.245	90.0	581.281	6.0	543.0	0.0	0.562	596.5	167.219			1.0	32.0	96.0	557.614	86.0	571.439	8.0	368.667	2.0	0.594	537.133	183.906	338.115	377.375	1.0	32.0	96.0	591.075	83.0	594.146	12.0	568.182	1.0	0.5	551.0	188.562	390.069	349.938
37	1	64	192	699.095	183	704.18	2	662.0	2	0.406	595.731	375.797	323.298	265.203	1.0	32.0	96.0	703.611	91.0	709.846	1.0	764.0	1.0	0.438	568.714	362.5	341.111	307.125	1.0	32.0	96.0	694.579	92.0	698.576	1.0	560.0	1.0	0.375	627.25	389.094	305.485	227.156	1.0	32.0	96.0	698.042	91.0	701.857	1.0	560.0	1.0	0.438	574.143	363.562	334.48	284.562	1.0	32.0	96.0	700.147	92.0	706.478	1.0	764.0	1.0	0.375	620.917	388.031	312.116	240.969
38	1	64	192	682.234	192	682.234	0		0	0.406	593.269	360.156	322.078	273.812	1.0	32.0	96.0	727.969	96.0	727.969	0.0		0.0	0.375	635.667	413.562	314.406	264.312	1.0	32.0	96.0	636.5	96.0	636.5	0.0		0.0	0.438	556.929	306.75	329.75	267.062	1.0	32.0	96.0	639.49	96.0	639.49	0.0		0.0	0.406	557.0	363.031	276.458	240.969	1.0	32.0	96.0	724.979	96.0	724.979	0.0		0.0	0.406	629.538	357.281	367.698	304.469
39	1	64	192	593.819	159	621.58	2	785.5	1	0.719	547.304	122.156	462.336	569.531	1.0	32.0	96.0	583.521	81.0	613.177	2.0	785.5	0.0	0.75	540.583	121.906	449.458	578.344	1.0	32.0	96.0	604.117	78.0	630.09	0.0		1.0	0.688	554.636	122.406	475.352	564.844	1.0	32.0	96.0	591.628	74.0	621.635	1.0	1158.0	1.0	0.844	545.556	94.812	490.587	742.188	1.0	32.0	96.0	596.011	85.0	621.53	1.0	413.0	0.0	0.594	549.789	149.5	434.094	474.156
40	1	64	192	807.33	191	807.33	0		1	0.359	607.739	396.875	410.455	307.047	1.0	32.0	96.0	807.589	95.0	807.589	0.0		1.0	0.375	589.75	393.75	413.839	318.25	1.0	32.0	96.0	807.073	96.0	807.073	0.0		0.0	0.344	627.364	400.0	407.073	286.969	1.0	32.0	96.0	801.684	95.0	801.684	0.0		1.0	0.375	585.333	390.625	411.059	313.25	1.0	32.0	96.0	812.917	96.0	812.917	0.0		0.0	0.344	632.182	403.125	409.792	302.094
41	1	64	192	420.363	161	442.081	0		0	0.844	397.889	98.484	317.5	449.453	0.0	32.0	96.0	428.138	78.0	449.282	0.0		0.0	0.906	428.414	91.656			1.0	32.0	96.0	412.75	83.0	435.313	0.0		0.0	0.781	362.48	105.312	307.438	385.531	1.0	32.0	96.0	421.758	82.0	441.305	0.0		0.0	0.938	373.633	89.656	327.708	584.656	0.0	32.0	96.0	418.968	79.0	442.886	0.0		0.0	0.75	428.208	107.312		
43	1	64	192	497.802	184	503.582	0		0	0.547	434.371	181.0	316.802	297.0	1.0	32.0	96.0	476.146	93.0	481.774	0.0		0.0	0.594	449.947	143.25	332.896	324.156	1.0	32.0	96.0	519.458	91.0	525.868	0.0		0.0	0.5	415.875	218.75	300.708	288.25	1.0	32.0	96.0	483.146	90.0	489.722	0.0		0.0	0.562	413.5	152.094	331.052	328.656	1.0	32.0	96.0	512.458	94.0	516.851	0.0		0.0	0.531	456.471	209.906	302.552	267.094
45	1	32	96	650.125	95	648.832	1	773.0	0	0.375	582.583	388.031	262.094	192.594																																																								
47	1	32	96	642.594	95	645.611	1	356.0	0	0.469	541.667	334.906	307.688	268.156																																																								
48	1	32	96	664.879	87	666.989	3	669.333	5	0.469	600.867	350.531	314.348	298.0																																																								
49	1	64	192	610.718	184	614.489	2	369.5	3	0.422	514.333	311.516	295.971	239.062	1.0	32.0	96.0	638.376	91.0	643.077	1.0	330.0	3.0	0.438	488.214	299.562	338.814	304.625	1.0	32.0	96.0	583.642	93.0	586.516	1.0	409.0	0.0	0.406	542.462	323.469	254.094	208.719	1.0	32.0	96.0	577.957	92.0	578.598	0.0		3.0	0.438	498.5	308.938	269.019	213.625	1.0	32.0	96.0	642.789	92.0	650.38	2.0	369.5	0.0	0.406	531.385	314.094	322.0	250.25
52	1	64	192	834.035	156	849.904	17	688.412	19	0.328	717.0	407.891	426.144	316.125	1.0	32.0	96.0	799.911	85.0	798.047	5.0	831.6	6.0	0.344	677.1	379.781	420.13	317.188	1.0	32.0	96.0	871.036	71.0	911.986	12.0	628.75	13.0	0.312	756.9	436.0	435.036	303.812	1.0	32.0	96.0	809.522	79.0	831.418	11.0	652.273	6.0	0.312	725.4	437.062	372.46	243.438	1.0	32.0	96.0	860.614	77.0	868.87	6.0	754.667	13.0	0.344	708.6	378.719	481.896	372.906
54	1	64	192	817.079	166	824.325	10	651.6	13	0.438	633.464	315.422	492.528	452.578	1.0	32.0	96.0	821.452	88.0	823.08	5.0	792.8	2.0	0.438	659.143	329.25	483.463	433.938	1.0	32.0	96.0	812.238	78.0	825.731	5.0	510.4	11.0	0.438	607.786	301.594	501.089	471.469	1.0	32.0	96.0	815.917	76.0	825.145	7.0	651.0	10.0	0.438	593.429	302.125	494.817	421.375	1.0	32.0	96.0	818.129	90.0	823.633	3.0	653.0	3.0	0.438	673.5	328.719	489.41	456.844
55	1	64	192	521.573	185	529.141	5	275.6	0	0.484	462.774	281.516	240.057	220.031	1.0	32.0	96.0	490.625	92.0	499.359	3.0	297.333	0.0	0.5	456.938	263.031	227.594	209.969	1.0	32.0	96.0	552.521	93.0	558.602	2.0	243.0	0.0	0.469	469.0	300.0	252.521	213.531	1.0	32.0	96.0	522.917	93.0	530.817	3.0	278.0	0.0	0.5	449.812	275.531	247.385	238.969	1.0	32.0	96.0	520.229	92.0	527.446	2.0	272.0	0.0	0.469	476.6	287.5	232.729	208.031
56	1	32	96	584.667	96	584.667	0		0	0.5	517.062	346.875	237.792	204.125																																																								
58	1	64	192	782.812	188	781.633	3	856.667	1	0.328	648.095	439.641	343.171	270.703	1.0	32.0	96.0	762.417	96.0	762.417	0.0		0.0	0.344	648.727	448.5	313.917	237.156	1.0	32.0	96.0	803.421	92.0	801.685	3.0	856.667	1.0	0.312	647.4	430.781	372.64	298.594	1.0	32.0	96.0	761.179	95.0	761.179	0.0		1.0	0.375	620.75	440.719	320.46	278.031	1.0	32.0	96.0	804.219	93.0	802.527	3.0	856.667	0.0	0.281	684.556	438.562	365.656	247.156
68	1	64	192	816.102	173	816.121	1	1170.0	15	0.391	720.04	362.766	453.336	363.234	1.0	32.0	96.0	840.348	86.0	838.395	1.0	1170.0	7.0	0.344	645.0	384.906	455.442	344.375	1.0	32.0	96.0	791.58	87.0	794.103	0.0		8.0	0.438	779.0	340.625	450.955	379.938	1.0	32.0	96.0	838.522	88.0	837.352	1.0	1170.0	6.0	0.406	731.231	300.0	538.522	444.719	1.0	32.0	96.0	792.908	85.0	794.141	0.0		9.0	0.375	707.917	425.531	367.377	293.969
69	1	64	192	696.249	136	748.059	44	554.591	4	0.719	689.304	172.672	512.466	610.453	0.0	32.0	96.0	697.359	70.0	737.171	19.0	575.947	2.0	0.719	744.826	169.812			1.0	32.0	96.0	695.151	66.0	759.785	25.0	538.36	2.0	0.719	633.783	175.531	512.224	639.562	0.0	32.0	96.0	698.37	66.0	748.53	23.0	562.826	2.0	0.781	700.0	163.031			1.0	32.0	96.0	694.151	70.0	747.609	21.0	545.571	2.0	0.656	676.571	182.312	504.453	564.719
70	1	64	192	569.089	173	581.613	13	448.462	2	0.516	556.0	260.938	308.152	277.547	1.0	32.0	96.0	566.698	85.0	584.482	8.0	447.125	0.0	0.531	547.412	287.5	279.198	257.969	1.0	32.0	96.0	571.532	88.0	578.841	5.0	450.6	2.0	0.5	565.125	234.375	337.157	301.125	0.0	32.0	96.0	569.781	86.0	583.314	8.0	449.625	0.0	0.562	595.833	234.375			1.0	32.0	96.0	568.383	87.0	579.931	5.0	446.6	2.0	0.469	508.2	287.5	280.883	233.562
71	1	64	192	446.298	146	459.228	2	362.5	0	0.75	407.78	135.969	301.031	388.031	1.0	32.0	96.0	483.053	75.0	503.311	0.0		0.0	0.75	430.087	160.969	312.021	378.281	1.0	32.0	96.0	409.543	71.0	413.282	2.0	362.5	0.0	0.75	379.278	110.969	290.042	374.281	1.0	32.0	96.0	434.88	68.0	444.866	2.0	362.5	0.0	0.844	394.905	104.719	312.042	448.75	1.0	32.0	96.0	457.24	78.0	471.564	0.0		0.0	0.656	421.3	167.219	290.021	326.5
73	1	64	192	738.109	191	739.058	1	557.0	0	0.391	624.84	414.594	323.516	265.672	1.0	32.0	96.0	719.083	96.0	719.083	0.0		0.0	0.344	643.727	413.031	306.052	223.625	1.0	32.0	96.0	757.135	95.0	759.242	1.0	557.0	0.0	0.438	610.0	416.156	340.979	308.031	1.0	32.0	96.0	710.615	96.0	710.615	0.0		0.0	0.406	580.231	400.0	310.615	254.375	1.0	32.0	96.0	765.604	95.0	767.8	1.0	557.0	0.0	0.375	673.167	429.188	336.417	259.438
74	0	64	192	648.232	186	647.032	3	812.333	2	0.422	650.963	337.5			1.0	32.0	96.0	671.432	91.0	670.0	3.0	812.333	1.0	0.406	617.769	371.875	299.557	207.125	0.0	32.0	96.0	625.032	95.0	625.032	0.0		1.0	0.438	681.786	303.125			1.0	32.0	96.0	666.625	93.0	668.871	2.0	706.0	0.0	0.406	624.769	300.0	366.625	279.0	0.0	32.0	96.0	629.447	93.0	625.194	1.0	1025.0	2.0	0.438	675.286	375.0		
75	1	64	192	433.695	155	464.636	6	296.0	0	0.719	331.761	148.203	274.198	380.078	1.0	32.0	96.0	493.389	87.0	499.965	1.0	365.0	0.0	0.562	416.5	190.625	297.625	319.562	1.0	32.0	96.0	372.054	68.0	417.892	5.0	282.2	0.0	0.875	277.286	105.781	250.771	443.094	1.0	32.0	96.0	401.266	71.0	440.42	2.0	287.5	0.0	0.812	307.692	131.281	261.625	431.969	1.0	32.0	96.0	466.473	84.0	485.012	4.0	300.25	0.0	0.625	363.05	165.125	286.771	339.125
77	0	64	192	512.934	155	547.664	1	865.0	7	0.938	527.712	88.062			0.0	32.0	96.0	541.548	81.0	581.337	0.0		2.0	0.906	546.586	89.625			0.0	32.0	96.0	482.693	74.0	510.25	1.0	865.0	5.0	0.969	509.467	86.5			0.0	32.0	96.0	506.236	75.0	539.311	1.0	865.0	5.0	0.969	532.742	86.0			0.0	32.0	96.0	519.413	80.0	555.59	0.0		2.0	0.906	522.143	90.125		
78	1	64	192	694.947	181	698.123	4	690.75	3	0.406	570.72	336.203	351.389	292.391	1.0	32.0	96.0	676.745	88.0	681.716	2.0	697.5	2.0	0.438	540.0	318.75	357.995	303.812	1.0	32.0	96.0	713.344	93.0	713.989	2.0	684.0	1.0	0.375	604.0	353.656	344.67	276.594	1.0	32.0	96.0	708.628	92.0	703.239	2.0	956.5	2.0	0.406	597.25	338.031	370.596	315.562	1.0	32.0	96.0	681.118	89.0	692.713	2.0	425.0	1.0	0.406	546.231	334.375	332.404	286.219
80	1	64	192	475.719	188	478.809	1	503.0	0	0.547	435.857	226.828	248.891	239.625	1.0	32.0	96.0	477.156	94.0	479.064	1.0	503.0	0.0	0.531	402.824	256.25	220.906	210.75	1.0	32.0	96.0	474.281	94.0	478.553	0.0		0.0	0.562	467.056	197.406	276.875	260.906	1.0	32.0	96.0	462.927	94.0	468.404	0.0		0.0	0.594	430.789	234.906	228.021	232.125	1.0	32.0	96.0	488.51	94.0	489.213	1.0	503.0	0.0	0.5	441.875	218.75	269.76	247.75
83	1	64	192	903.413	175	907.549	10	851.8	3	0.391	755.0	392.188	511.225	458.812	1.0	32.0	96.0	896.547	87.0	897.506	5.0	940.8	1.0	0.375	746.917	365.625	530.922	483.0	1.0	32.0	96.0	910.351	88.0	917.477	5.0	762.8	2.0	0.406	762.462	418.75	491.601	432.25	1.0	32.0	96.0	857.347	86.0	854.326	8.0	893.375	1.0	0.344	757.273	412.5	444.847	398.469	1.0	32.0	96.0	949.968	89.0	958.978	2.0	685.5	2.0	0.438	753.214	371.875	578.093	559.125
84	1	64	192	528.335	186	530.833	2	479.0	1	0.484	441.71	264.062	264.273	224.453	1.0	32.0	96.0	509.667	94.0	514.298	1.0	236.0	0.0	0.469	423.867	275.0	234.667	186.594	1.0	32.0	96.0	547.2	92.0	547.728	1.0	722.0	1.0	0.5	458.438	253.125	294.075	249.875	1.0	32.0	96.0	510.875	94.0	514.0	1.0	236.0	0.0	0.5	436.688	281.25	229.625	184.75	1.0	32.0	96.0	545.979	92.0	548.033	1.0	722.0	1.0	0.469	447.067	246.875	299.104	253.188
89	1	64	192	613.094	189	610.794	3	758.0	0	0.453	544.621	357.047	256.047	221.047	1.0	32.0	96.0	623.135	94.0	619.351	2.0	801.0	0.0	0.5	556.125	322.938	300.198	266.562	1.0	32.0	96.0	603.052	95.0	602.326	1.0	672.0	0.0	0.406	530.462	391.156	211.896	172.031	1.0	32.0	96.0	605.302	94.0	598.574	2.0	921.5	0.0	0.469	536.6	354.719	250.583	229.812	1.0	32.0	96.0	620.885	95.0	622.884	1.0	431.0	0.0	0.438	553.214	359.375	261.51	207.625
90	1	64	192	533.124	154	581.26	4	478.75	4	0.562	385.514	253.906	270.711	281.844	1.0	32.0	96.0	479.604	64.0	568.938	2.0	559.5	2.0	0.688	309.143	189.062	275.235	403.25	1.0	32.0	96.0	584.936	90.0	590.022	2.0	398.0	2.0	0.438	500.071	318.75	266.186	168.812	1.0	32.0	96.0	574.559	84.0	593.19	3.0	476.333	3.0	0.438	480.846	290.625	283.934	195.375	1.0	32.0	96.0	491.239	70.0	566.943	1.0	486.0	1.0	0.688	329.182	217.188	258.539	362.438
93	1	64	192	731.108	176	736.743	1	1174.0	6	0.453	515.179	296.625	430.552	370.562	1.0	32.0	96.0	689.778	85.0	700.31	0.0		5.0	0.562	502.765	245.844	436.354	429.781	1.0	32.0	96.0	770.263	91.0	770.374	1.0	1174.0	1.0	0.344	534.364	347.406	422.857	315.188	1.0	32.0	96.0	773.839	91.0	771.422	0.0		2.0	0.438	502.923	328.125	437.481	360.938	1.0	32.0	96.0	687.913	85.0	700.024	1.0	1174.0	4.0	0.469	525.8	265.125	422.788	357.938
94	1	64	192	654.124	169	668.722	3	767.333	3	0.453	613.227	270.609	341.983	331.031	1.0	32.0	96.0	648.681	89.0	653.448	1.0	746.0	1.0	0.406	609.455	274.0	347.368	297.375	1.0	32.0	96.0	659.884	80.0	686.44	2.0	778.0	2.0	0.5	617.0	267.219	336.505	388.281	0.0	32.0	96.0	673.066	88.0	682.107	2.0	734.5	0.0	0.406	698.889	332.844			1.0	32.0	96.0	634.081	81.0	654.308	1.0	833.0	3.0	0.5	553.923	208.375	377.98	371.625
95	1	64	192	765.513	187	766.285	0		0	0.344	644.409	386.203	359.375	260.109	1.0	32.0	96.0	776.527	93.0	776.527	0.0		0.0	0.344	626.545	356.25	396.01	292.062	1.0	32.0	96.0	754.617	94.0	756.043	0.0		0.0	0.344	662.273	416.156	322.74	228.844	1.0	32.0	96.0	809.634	93.0	811.674	0.0		0.0	0.344	700.0	425.0	359.333	264.625	1.0	32.0	96.0	721.862	94.0	721.862	0.0		0.0	0.344	588.818	347.406	359.417	273.25
96	1	64	192	429.089	170	446.7	1	582.0	2	0.672	387.19	165.109	263.98	299.531	0.0	32.0	96.0	435.116	84.0	456.667	1.0	582.0	1.0	0.656	437.238	176.562			1.0	32.0	96.0	423.063	86.0	436.965	0.0		1.0	0.688	337.143	153.656	269.407	308.844	1.0	32.0	96.0	416.229	84.0	437.798	0.0		0.0	0.625	398.55	206.25	209.979	251.75	1.0	32.0	96.0	442.223	86.0	455.395	1.0	582.0	2.0	0.719	376.864	123.969	318.255	366.031
101	1	64	192	480.005	174	486.855	2	298.0	0	0.656	430.878	135.953	341.552	366.734	1.0	32.0	96.0	497.469	84.0	505.44	1.0	306.0	0.0	0.656	431.75	125.531	371.938	401.531	1.0	32.0	96.0	462.358	90.0	469.315	1.0	290.0	0.0	0.656	430.048	146.375	311.167	332.688	1.0	32.0	96.0	487.708	86.0	492.058	1.0	290.0	0.0	0.594	450.632	157.812	329.896	336.406	1.0	32.0	96.0	472.221	88.0	481.713	1.0	306.0	0.0	0.719	413.818	114.094	353.208	407.875
103	1	64	192	622.514	158	645.892	3	808.333	4	0.844	558.686	96.984	515.595	804.734	1.0	32.0	96.0	585.763	80.0	593.25	1.0	1330.0	3.0	0.75	519.583	103.188	482.576	567.562	1.0	32.0	96.0	659.663	78.0	700.584	2.0	547.5	1.0	0.938	593.444	90.781	548.05	1047.031	1.0	32.0	96.0	663.118	83.0	674.59	1.0	641.0	3.0	0.844	534.741	95.406	567.712	939.062	0.0	32.0	96.0	581.467	75.0	613.703	2.0	892.0	1.0	0.844	585.625	98.562		
104	1	64	192	654.623	179	665.128	3	814.667	1	0.625	637.575	205.484	449.139	490.266	0.0	32.0	96.0	610.495	88.0	624.705	1.0	593.0	1.0	0.719	649.348	131.781			1.0	32.0	96.0	698.292	91.0	704.22	2.0	925.5	0.0	0.531	621.647	279.188	419.104	416.75	1.0	32.0	96.0	638.632	89.0	653.247	0.0		1.0	0.625	615.9	167.719	470.913	515.531	1.0	32.0	96.0	670.448	90.0	676.878	3.0	814.667	0.0	0.625	659.25	243.25	427.198	472.5
106	1	64	192	681.715	149	699.66	12	543.182	3	0.469	640.586	269.281	401.613	384.906	0.0	32.0	96.0	650.064	78.0	673.312	3.0	492.0	1.0	0.469	660.533	250.531			1.0	32.0	96.0	714.054	71.0	728.643	9.0	562.375	2.0	0.469	619.214	288.031	410.83	385.812	1.0	32.0	96.0	622.649	77.0	651.618	3.0	284.0	1.0	0.469	543.4	237.5	378.595	361.5	0.0	32.0	96.0	742.065	72.0	751.085	9.0	640.375	2.0	0.469	744.714	301.062		
107	1	64	192	790.665	167	801.575	1	751.0	16	0.359	706.087	392.453	398.212	324.547	1.0	32.0	96.0	848.209	82.0	858.61	0.0		10.0	0.375	662.167	350.0	498.209	392.75	0.0	32.0	96.0	735.678	85.0	746.553	1.0	751.0	6.0	0.344	754.0	434.906			1.0	32.0	96.0	778.511	84.0	786.905	1.0	751.0	8.0	0.406	694.538	396.875	381.636	323.5	1.0	32.0	96.0	802.818	83.0	816.422	0.0		8.0	0.312	721.1	388.031	414.787	323.406
109	0	48	144	402.215	105	424.267	20	383.556	1	0.854	482.725	93.75																																																										
111	0	64	192	697.532	160	690.294	29	726.759	2	0.594	724.5	175.266			1.0	32.0	96.0	686.064	80.0	677.575	13.0	713.538	2.0	0.719	683.565	109.375	576.689	666.594	0.0	32.0	96.0	708.76	80.0	703.013	16.0	737.5	0.0	0.469	787.267	241.156			0.0	32.0	96.0	653.219	79.0	639.481	16.0	698.875	0.0	0.656	690.762	182.812			0.0	32.0	96.0	742.787	81.0	739.852	13.0	761.077	2.0	0.531	766.176	167.719		
112	1	64	192	573.372	185	576.473	0		0	0.5	488.781	243.75	326.635	302.25	1.0	32.0	96.0	588.716	91.0	593.433	0.0		0.0	0.5	514.062	250.0	332.583	325.5	1.0	32.0	96.0	558.188	94.0	560.234	0.0		0.0	0.5	463.5	237.5	320.688	281.5	1.0	32.0	96.0	563.768	92.0	569.846	0.0		0.0	0.5	486.312	278.125	279.771	248.375	1.0	32.0	96.0	582.875	93.0	582.957	0.0		0.0	0.5	491.25	209.375	373.5	345.625
113	1	64	192	556.225	166	566.189	2	507.5	1	0.562	499.344	185.438	332.929	354.438	1.0	32.0	96.0	630.586	84.0	632.195	1.0	363.0	0.0	0.438	589.75	249.5	321.969	285.188	1.0	32.0	96.0	485.132	82.0	500.183	1.0	652.0	1.0	0.688	445.1	121.375	343.33	424.0	1.0	32.0	96.0	593.633	83.0	614.193	2.0	507.5	1.0	0.562	522.312	222.406	339.983	406.906	1.0	32.0	96.0	517.966	83.0	517.0	0.0		0.0	0.562	476.375	148.469	326.333	349.031
114	1	64	192	552.537	182	558.525	1	850.0	1	0.5	439.594	223.188	326.456	319.312	1.0	32.0	96.0	520.137	89.0	529.284	1.0	850.0	0.0	0.5	465.312	223.969	290.75	266.531	1.0	32.0	96.0	584.937	93.0	586.194	0.0		1.0	0.5	413.875	222.406	362.531	367.094	1.0	32.0	96.0	533.968	93.0	541.75	0.0		0.0	0.438	486.357	224.5	303.906	268.0	1.0	32.0	96.0	571.105	89.0	575.865	1.0	850.0	1.0	0.562	403.222	221.875	349.23	375.438
115	1	64	192	629.068	189	630.042	3	567.667	0	0.453	571.103	286.203	342.865	313.797	1.0	32.0	96.0	644.208	95.0	644.832	1.0	585.0	0.0	0.438	595.357	265.625	378.583	341.938	1.0	32.0	96.0	613.927	94.0	615.096	2.0	559.0	0.0	0.469	548.467	306.781	307.146	289.75	1.0	32.0	96.0	630.906	94.0	632.532	2.0	554.5	0.0	0.469	567.0	281.25	349.656	330.344	1.0	32.0	96.0	627.229	95.0	627.579	1.0	594.0	0.0	0.438	575.5	291.156	336.073	304.531
116	1	64	192	810.852	184	811.69	3	872.0	3	0.312	652.3	442.188	368.664	272.812	1.0	32.0	96.0	776.43	92.0	777.304	1.0	696.0	3.0	0.375	647.583	415.625	360.805	303.125	1.0	32.0	96.0	844.198	92.0	846.076	2.0	960.0	0.0	0.25	659.375	468.75	375.448	244.75	1.0	32.0	96.0	817.117	90.0	819.489	3.0	872.0	2.0	0.281	642.444	437.5	379.617	275.812	1.0	32.0	96.0	804.653	94.0	804.223	0.0		1.0	0.344	660.364	446.875	357.778	272.062
117	1	64	192	635.154	170	641.568	1	642.0	9	0.516	580.909	254.688	376.996	353.281	0.0	32.0	96.0	642.611	85.0	647.417	0.0		5.0	0.531	649.941	268.75			1.0	32.0	96.0	627.859	85.0	635.788	1.0	642.0	4.0	0.5	507.562	240.625	387.234	346.875	1.0	32.0	96.0	651.638	87.0	657.816	0.0		2.0	0.5	606.062	278.125	373.513	327.875	1.0	32.0	96.0	617.545	83.0	624.329	1.0	642.0	7.0	0.531	557.235	231.25	379.357	376.688
118	1	64	192	659.695	178	658.404	6	668.0	5	0.453	601.69	292.719	366.976	330.828	1.0	32.0	96.0	660.196	85.0	658.188	5.0	711.0	4.0	0.469	584.933	288.031	372.164	342.156	1.0	32.0	96.0	659.211	93.0	658.602	1.0	453.0	1.0	0.438	619.643	297.406	361.804	316.969	1.0	32.0	96.0	672.826	87.0	669.563	4.0	746.0	4.0	0.469	564.733	337.5	335.326	290.406	1.0	32.0	96.0	646.979	91.0	647.736	2.0	512.0	1.0	0.438	641.286	247.938	399.041	375.625
119	1	64	192	662.916	184	669.63	5	411.0	2	0.469	575.133	290.125	372.791	333.938	1.0	32.0	96.0	627.574	90.0	636.367	4.0	429.75	2.0	0.469	563.2	288.562	339.012	269.094	1.0	32.0	96.0	697.521	94.0	701.479	1.0	336.0	0.0	0.469	587.067	291.688	405.833	392.031	1.0	32.0	96.0	703.375	94.0	708.106	1.0	275.0	0.0	0.5	597.562	266.156	437.219	428.344	1.0	32.0	96.0	621.596	90.0	629.444	4.0	445.0	2.0	0.438	549.5	314.094	307.502	228.031
120	0	64	192	643.417	168	637.964	13	763.0	5	0.531	670.529	224.75			0.0	32.0	96.0	660.967	78.0	650.179	10.0	815.8	4.0	0.625	697.75	162.0			0.0	32.0	96.0	626.421	90.0	627.378	3.0	587.0	1.0	0.438	631.643	287.5			0.0	32.0	96.0	638.543	81.0	632.852	7.0	840.0	4.0	0.625	692.6	180.75			1.0	32.0	96.0	648.137	87.0	642.724	6.0	673.167	1.0	0.438	639.0	268.75	379.387	338.375
121	1	64	192	728.728	175	732.463	1	795.0	7	0.438	661.071	303.391	421.399	360.734	1.0	32.0	96.0	715.044	86.0	715.733	1.0	795.0	5.0	0.5	681.062	253.656	461.388	439.344	1.0	32.0	96.0	742.118	89.0	748.629	0.0		2.0	0.375	634.417	353.125	381.098	283.875	1.0	32.0	96.0	729.426	90.0	732.456	1.0	795.0	2.0	0.438	640.929	291.156	438.269	361.531	1.0	32.0	96.0	728.0	85.0	732.471	0.0		5.0	0.438	681.214	315.625	404.375	357.5
122	1	64	192	797.681	180	798.972	1	752.0	10	0.297	637.263	427.938	369.744	243.172	1.0	32.0	96.0	815.087	91.0	815.78	1.0	752.0	4.0	0.312	650.5	381.875	433.212	313.0	1.0	32.0	96.0	779.889	89.0	781.787	0.0		6.0	0.281	622.556	474.0	305.889	191.75	1.0	32.0	96.0	784.811	89.0	786.764	0.0		6.0	0.281	643.111	456.344	328.467	214.812	1.0	32.0	96.0	810.272	91.0	810.912	1.0	752.0	4.0	0.312	632.0	399.531	410.74	276.031
123	1	64	192	581.906	190	581.253	0		1	0.469	564.267	276.828	305.078	256.172	1.0	32.0	96.0	581.158	94.0	579.83	0.0		1.0	0.5	548.125	262.5	318.658	284.0	0.0	32.0	96.0	582.646	96.0	582.646	0.0		0.0	0.438	582.714	291.156			1.0	32.0	96.0	607.895	94.0	606.851	0.0		1.0	0.469	583.867	290.625	317.27	260.906	1.0	32.0	96.0	556.188	96.0	556.188	0.0		0.0	0.469	544.667	263.031	293.156	253.031
124	1	64	192	757.834	172	754.471	6	907.0	11	0.375	617.167	374.5	383.334	287.25	1.0	32.0	96.0	736.322	85.0	729.906	4.0	967.25	6.0	0.406	583.615	326.594	409.728	339.781	1.0	32.0	96.0	779.11	87.0	778.471	2.0	786.5	5.0	0.344	656.818	422.406	356.704	231.562	1.0	32.0	96.0	795.135	85.0	788.165	4.0	943.25	7.0	0.344	646.818	388.031	407.104	299.625	1.0	32.0	96.0	721.75	87.0	721.552	2.0	834.5	4.0	0.406	592.077	360.969	360.781	278.812
