sub	block	condition	racehorse_check	n_stop_trials	n_go_trials	go_rt	n_go_cor	go_cor_rt	n_go_error	go_error_rt	n_go_miss	stop_prob_resp	us_rt	ssd	ssrt_mean	ssrt_int
1	1	lED_lPort	1	16	48	868.1041666666666	46	872.6521739130435	2	763.5	0	0.3125	702.6	435.5	432.60416666666663	310.0625
1	2	lED_sPort	1	16	48	845.304347826087	46	845.304347826087	0		2	0.375	635.1666666666666	406.25	439.054347826087	407.25
1	3	hED_sPort	1	16	48	792.1914893617021	46	789.6739130434783	1	908.0	1	0.5	505.625	433.3125	358.8789893617021	346.6875
1	4	hED_lPort	1	16	48	788.4166666666666	46	802.0217391304348	2	475.5	0	0.375	573.5	312.375	476.04166666666663	347.375
4	1	hED_lPort	1	16	48	744.875	48	744.875	0		0	0.4375	568.2857142857143	305.125	439.75	326.4375
4	2	hED_sPort	1	16	48	788.7083333333334	47	783.6808510638298	1	1025.0	0	0.4375	628.0	299.0	489.70833333333337	407.625
4	3	lED_lPort	1	16	48	788.9574468085107	46	793.8260869565217	1	565.0	1	0.375	614.3333333333334	370.9375	418.01994680851067	320.3125
4	4	lED_sPort	1	16	48	777.0	44	778.0454545454545	1	731.0	3	0.5	674.8571428571429	285.375	491.625	411.125
5	1	lED_lPort	1	16	48	654.875	43	659.4651162790698	5	615.4	0	0.5625	523.3333333333334	289.6875	365.1875	338.0
5	2	hED_lPort	0	16	48	622.3958333333334	46	628.5217391304348	2	481.5	0	0.4375	783.2857142857143	260.5		
5	3	hED_sPort	1	16	48	620.3125	43	641.6976744186046	5	436.4	0	0.4375	505.2857142857143	199.0625	421.25	350.0625
5	4	lED_sPort	1	16	48	659.1041666666666	47	660.3191489361702	1	602.0	0	0.5	531.0	217.8125	441.29166666666663	407.6875
6	1	lED_lPort	1	16	48	774.7142857142857	42	771.0975609756098	3	923.0	3	0.375	677.0	338.5625	384.5041666666667	325.6875
6	2	hED_lPort	0	16	48	732.5384615384615	37	738.1351351351351	2	629.0	9	0.5	768.0	284.3125		
6	3	hED_sPort	0	16	48	610.2291666666666	48	610.2291666666666	0		0	0.5	677.25	261.3125		
6	4	lED_sPort	0	16	48	591.8888888888889	45	587.8409090909091	1	770.0	2	0.5	597.5	243.8125		
7	1	hED_lPort	1	16	48	770.5111111111111	44	764.4545454545455	1	1037.0	3	0.5	623.25	262.4375	508.07361111111106	528.5625
7	2	hED_sPort	1	16	48	899.1111111111111	43	902.6279069767442	2	823.5	3	0.5	893.875	318.75	580.3611111111111	573.75
11	1	lED_lPort	1	16	48	853.1521739130435	46	853.1521739130435	0		2	0.3125	545.8	493.75	359.4021739130435	324.125
11	2	hED_lPort	1	16	48	771.0625	47	785.0425531914893	1	114.0	0	0.3125	432.2	281.25	489.8125	415.5625
11	3	hED_sPort	1	16	48	548.4893617021277	45	561.1777777777778	2	263.0	1	0.4375	431.42857142857144	300.0	248.48936170212767	175.125
11	4	lED_sPort	1	16	48	431.9583333333333	48	431.9583333333333	0		0	0.625	407.7	150.0	281.9583333333333	305.5
17	1	lED_lPort	1	16	48	608.2083333333334	47	614.7872340425532	0		0	0.4375	510.0	268.75	339.45833333333337	284.75
17	2	hED_lPort	1	16	48	535.7708333333334	46	543.304347826087	0		0	0.5	508.125	232.3125	303.45833333333337	276.1875
17	3	hED_sPort	0	16	48	585.0625	46	588.804347826087	0		0	0.5	667.375	243.75		
17	4	lED_sPort	1	16	48	601.25	48	601.25	0		0	0.4375	520.2857142857143	356.25	245.0	199.3125
18	1	hED_lPort	1	16	48	691.9166666666666	47	690.5106382978723	1	758.0	0	0.375	538.8333333333334	325.0	366.91666666666663	293.5
18	2	lED_sPort	1	16	48	696.1276595744681	47	696.1276595744681	0		1	0.4375	639.4285714285714	331.25	364.8776595744681	280.5
18	3	lED_lPort	1	16	48	668.4444444444445	45	668.4444444444445	0		3	0.375	460.0	338.5625	329.88194444444446	235.5625
18	4	hED_sPort	1	16	48	623.7234042553191	46	622.4782608695652	0		1	0.4375	464.14285714285717	243.75	379.9734042553191	304.8125
19	1	lED_lPort	1	16	48	614.7083333333334	46	615.7826086956521	2	590.0	0	0.5	491.125	256.25	358.45833333333337	335.75
19	2	lED_sPort	1	16	48	677.625	47	677.936170212766	0		0	0.4375	580.8571428571429	381.25	296.375	287.375
19	3	hED_sPort	1	16	48	680.7291666666666	45	673.2666666666667	1	1013.0	0	0.4375	572.5714285714286	281.25	399.47916666666663	343.4375
19	4	hED_lPort	1	16	48	670.8936170212766	47	670.8936170212766	0		1	0.4375	604.1428571428571	363.5	307.39361702127655	269.4375
20	1	lED_lPort	1	16	48	726.9772727272727	42	731.8333333333334	0		4	0.375	581.0	331.25	395.72727272727275	274.625
20	2	hED_lPort	0	16	48	704.9148936170212	14	775.3571428571429	3	921.6666666666666	0	0.4375	818.1666666666666	318.75		
20	3	hED_sPort	1	16	48	693.0238095238095	6	717.8333333333334	2	977.0	1	0.5625	648.6666666666666	144.75	474.54787234042556	564.75
20	4	lED_sPort	1	16	48	632.1875	5	860.0	2	909.0	0	0.9375	318.125	110.4375	311.0208333333333	904.375
21	1	hED_sPort	1	16	48	581.7916666666666	48	581.7916666666666	0		0	0.5625	496.1111111111111	302.125	279.66666666666663	277.0625
21	2	lED_lPort	1	16	48	543.8125	47	535.9148936170212	1	915.0	0	0.5	367.0	191.625	352.1875	329.375
22	1	lED_lPort	1	16	48	678.9787234042553	46	678.8913043478261	0		1	0.4375	590.7142857142857	325.0	353.97872340425533	320.25
22	2	hED_lPort	1	16	48	632.4791666666666	46	639.1304347826087	1	311.0	0	0.5625	547.8888888888889	275.0	357.47916666666663	356.875
22	3	hED_sPort	0	16	48	636.6666666666666	47	640.8723404255319	0		0	0.4375	710.1428571428571	218.75		
22	4	lED_sPort	1	16	48	664.0833333333334	47	672.5957446808511	0		0	0.625	658.8	243.75	420.33333333333337	490.0
23	1	lED_sPort	1	16	48	688.5744680851063	45	692.4	2	602.5	1	0.375	582.8333333333334	393.75	294.82446808510633	231.375
23	2	hED_sPort	1	16	48	646.1458333333334	46	648.695652173913	2	587.5	0	0.5	544.125	376.0625	270.08333333333337	226.9375
23	3	hED_lPort	1	16	48	589.5	47	590.5957446808511	1	538.0	0	0.4375	565.1428571428571	300.0	289.5	238.5625
23	4	lED_lPort	0	16	48	620.6458333333334	45	639.4666666666667	3	338.3333333333333	0	0.4375	647.4285714285714	281.25		
26	1	lED_lPort	1	16	48	731.1666666666666	47	739.3404255319149	1	347.0	0	0.4375	668.7142857142857	354.25	376.91666666666663	364.3125
26	2	hED_lPort	1	16	48	731.0833333333334	48	731.0833333333334	0		0	0.3125	668.8	470.75	260.33333333333337	192.75
26	3	hED_sPort	1	16	48	759.6170212765958	47	759.6170212765958	1		0	0.4375	603.8571428571429	440.625	303.16666666666663	268.5
26	4	lED_sPort	1	16	48	709.936170212766	47	709.936170212766	0		1	0.4375	585.0	373.0	336.936170212766	267.0
28	1	lED_lPort	1	16	48	611.7916666666666	46	615.5217391304348	2	526.0	0	0.4375	524.0	282.3125	329.47916666666663	272.8125
28	2	hED_lPort	1	16	48	611.1489361702128	47	611.1489361702128	0		1	0.4375	524.8571428571429	300.0	311.1489361702128	278.3125
28	3	hED_sPort	1	16	48	593.2765957446809	46	595.804347826087	1	477.0	1	0.5	489.5	244.8125	348.4640957446809	304.6875
28	4	lED_sPort	1	16	48	572.1489361702128	45	576.4666666666667	2	475.0	1	0.5	532.2857142857143	276.0625	296.0864361702128	234.9375
30	1	hED_lPort	1	16	48	617.6041666666666	44	615.6590909090909	4	639.0	0	0.4375	589.7142857142857	265.75	351.85416666666663	317.8125
30	2	lED_lPort	1	16	48	664.9787234042553	42	683.9285714285714	5	505.8	1	0.4375	539.7142857142857	338.5	326.47872340425533	242.625
30	3	hED_sPort	1	16	48	698.0851063829788	47	708.4565217391304	1	221.0	0	0.5	621.125	359.375	324.16666666666663	321.625
30	4	lED_sPort	1	16	48	554.6744186046511	40	565.2820512820513	6	451.25	2	0.8125	448.22222222222223	129.4375	389.0625	549.25
31	1	lED_lPort	1	16	48	552.936170212766	43	556.2380952380952	5	525.2	0	0.5	337.57142857142856	239.625	301.79166666666663	276.875
31	2	hED_sPort	1	16	48	641.9787234042553	46	659.6	2	245.5	0	0.5	626.2857142857143	262.5	366.10416666666663	365.0
31	3	hED_lPort	1	16	48	470.3958333333333	44	493.1136363636364	4	220.5	0	0.5	346.75	207.3125	263.0833333333333	251.6875
31	4	lED_sPort	1	16	48	488.3333333333333	47	493.06382978723406	1	266.0	0	0.5	472.125	215.625	272.7083333333333	252.875
33	1	lED_lPort	1	16	48	788.5833333333334	46	776.9347826086956	2	1056.5	0	0.4375	766.2857142857143	369.8125	418.77083333333337	372.1875
33	2	hED_lPort	1	16	48	791.1304347826087	41	794.8780487804878	6	760.4	1	0.375	670.0	369.8125	404.48537234042556	341.3125
33	3	hED_sPort	1	16	48	823.1333333333333	45	830.6136363636364	1	494.0	2	0.375	593.6666666666666	306.25	498.9891304347826	459.125
33	4	lED_sPort	1	16	48	782.0909090909091	41	769.6923076923077	5	878.8	2	0.375	710.8	362.5	385.5869565217391	328.25
35	1	hED_lPort	1	16	48	818.4047619047619	42	818.4047619047619	0		6	0.4375	799.1428571428571	368.75	449.6547619047619	380.8125
35	2	lED_sPort	1	16	48	847.15	39	850.3947368421053	2	785.5	7	0.375	812.1666666666666	269.8125	556.6753048780488	430.0625
35	3	lED_lPort	1	16	48	870.1470588235294	33	902.3333333333334	5	628.75	10	0.4375	845.3333333333334	406.25	372.3026315789474	417.625
35	4	hED_sPort	0	16	48	777.1428571428571	34	781.7941176470588	1	619.0	13	0.5625	797.8888888888889	129.1875		
36	1	lED_lPort	0	16	48	602.1063829787234	46	604.5869565217391	2	488.0	0	0.5625	612.0	189.625		
36	2	hED_sPort	1	16	48	626.5217391304348	39	635.8205128205128	8	574.7142857142857	1	0.4375	500.8333333333333	232.3125	380.8789893617021	306.25
36	3	hED_lPort	1	16	48	506.609756097561	40	529.0833333333334	6	344.8	2	0.625	471.625	178.1875	273.35597826086956	349.3125
36	4	lED_sPort	0	16	48	556.3829787234042	44	556.3488372093024	4	556.75	0	0.5625	584.4444444444445	144.8125		
37	1	lED_lPort	1	16	48	698.5416666666666	46	703.6739130434783	1	560.0	0	0.375	634.6666666666666	395.875	302.66666666666663	234.5
37	2	hED_sPort	1	16	48	709.5625	46	719.4782608695652	1	764.0	0	0.375	622.0	393.75	315.8125	266.5
37	3	hED_lPort	1	16	48	697.531914893617	45	700.0	0		1	0.5	528.75	331.25	366.281914893617	350.75
37	4	lED_sPort	1	16	48	690.531914893617	46	693.4782608695652	0		1	0.375	619.8333333333334	382.3125	308.219414893617	219.3125
38	1	lED_lPort	1	16	48	599.3958333333334	48	599.3958333333334	0		0	0.4375	490.7142857142857	300.0	299.39583333333337	244.6875
38	2	hED_lPort	1	16	48	679.5833333333334	48	679.5833333333334	0		0	0.375	634.3333333333334	426.0625	253.52083333333337	228.0625
38	3	hED_sPort	1	16	48	776.3541666666666	48	776.3541666666666	0		0	0.375	637.0	401.0625	375.29166666666663	293.0625
38	4	lED_sPort	1	16	48	673.6041666666666	48	673.6041666666666	0		0	0.4375	623.1428571428571	313.5	360.10416666666663	319.5625
39	1	lED_sPort	1	16	48	628.0416666666666	42	650.5952380952381	0		0	0.5625	514.3333333333334	151.0625	476.97916666666663	492.6875
39	2	hED_sPort	0	16	48	562.5869565217391	43	591.7560975609756	1	413.0	0	0.625	581.7	147.9375		
39	3	hED_lPort	1	16	48	603.5833333333334	38	636.2894736842105	1	1158.0	0	0.875	511.2142857142857	95.875	507.70833333333337	747.875
39	4	lED_lPort	0	16	48	579.1521739130435	36	606.1666666666666	0		1	0.8125	582.5384615384615	93.75		
40	1	lED_lPort	1	16	48	760.625	48	760.625	0		0	0.375	600.6666666666666	393.75	366.875	282.0
40	2	hED_lPort	1	16	48	843.6170212765958	47	843.6170212765958	0		1	0.375	570.0	387.5	456.1170212765958	360.625
40	3	lED_sPort	1	16	48	853.5208333333334	48	853.5208333333334	0		0	0.3125	659.4	406.25	447.27083333333337	363.8125
40	4	hED_sPort	1	16	48	772.3125	48	772.3125	0		0	0.375	609.5	400.0	372.3125	289.75
41	1	lED_sPort	1	16	48	416.5416666666667	43	432.83720930232556	0		0	0.625	370.3	118.8125	297.7291666666667	328.3125
41	2	lED_lPort	1	16	48	408.9583333333333	40	437.975	0		0	0.9375	357.26666666666665	91.8125	317.1458333333333	517.8125
41	3	hED_lPort	1	16	48	434.82978723404256	42	444.4761904761905	0		0	0.9375	390.0	87.5	338.2708333333333	630.5625
41	4	hED_sPort	0	16	48	421.4468085106383	36	454.8888888888889	0		0	0.875	469.57142857142856	95.8125		
43	1	lED_sPort	1	16	48	559.5416666666666	48	559.5416666666666	0		0	0.5	476.375	262.5	297.04166666666663	262.5
43	2	hED_sPort	1	16	48	465.375	46	472.30434782608694	0		0	0.5625	438.77777777777777	157.3125	308.0625	295.4375
43	3	lED_lPort	1	16	48	479.375	43	488.27906976744185	0		0	0.5	355.375	175.0	304.375	312.0
43	4	hED_lPort	1	16	48	486.9166666666667	47	491.0425531914894	0		0	0.625	460.0	129.1875	357.7291666666667	351.3125
45	1	hED_sPort	1	16	48	609.9375	47	606.468085106383	1	773.0	0	0.4375	530.1428571428571	351.0625	258.875	228.625
45	3	lED_lPort	1	16	48	690.3125	48	690.3125	0		0	0.3125	656.0	425.0	265.3125	160.5
47	1	hED_sPort	1	16	48	631.4583333333334	47	637.3191489361702	1	356.0	0	0.5625	501.77777777777777	257.3125	374.14583333333337	386.8125
47	2	lED_lPort	1	16	48	653.7291666666666	48	653.7291666666666	0		0	0.375	601.5	412.5	241.22916666666663	141.125
48	1	hED_sPort	1	16	48	682.3125	47	686.936170212766	1	465.0	0	0.4375	555.7142857142857	426.0625	256.25	231.25
48	3	lED_lPort	1	16	48	645.4186046511628	40	643.55	2	771.5	5	0.5	640.375	275.0	370.4186046511628	351.5
49	1	hED_sPort	1	16	48	659.0625	47	666.063829787234	1	330.0	0	0.4375	471.42857142857144	308.375	350.6875	327.875
49	2	lED_sPort	1	16	48	626.1702127659574	45	634.0	1	409.0	0	0.375	601.3333333333334	319.8125	293.3125	226.0625
49	3	hED_lPort	1	16	48	616.3111111111111	44	618.5227272727273	0		3	0.4375	505.0	290.75	325.56111111111113	273.4375
49	4	lED_lPort	1	16	48	542.0	48	542.0	0		0	0.4375	492.0	327.125	214.875	184.5625
52	1	lED_sPort	1	16	48	910.0263157894736	33	941.8181818181819	5	700.2	10	0.3125	745.2	429.25	480.77631578947364	390.25
52	2	lED_lPort	1	16	48	838.1111111111111	38	886.078947368421	7	577.7142857142857	3	0.3125	768.6	442.75	395.3611111111111	287.875
52	3	hED_lPort	1	16	48	780.9333333333333	41	780.7560975609756	4	782.75	3	0.3125	682.2	431.375	349.5583333333333	186.625
52	4	hED_sPort	1	16	48	818.8888888888889	44	814.1590909090909	1	1027.0	3	0.375	672.0	328.1875	490.7013888888889	416.6875
55	1	hED_sPort	1	16	48	480.7916666666667	46	489.2826086956522	1	304.0	0	0.5	454.375	250.0	230.79166666666669	205.0
55	2	hED_lPort	1	16	48	500.4583333333333	46	509.4347826086956	2	294.0	0	0.5	459.5	276.0625	224.39583333333331	212.4375
55	3	lED_sPort	1	16	48	559.6666666666666	46	565.6086956521739	1	240.0	0	0.4375	502.0	325.0	234.66666666666663	180.5625
55	4	lED_lPort	1	16	48	545.375	47	551.7446808510638	1	246.0	0	0.5	440.125	275.0	270.375	244.0
56	1	hED_sPort	1	16	48	543.625	48	543.625	0		0	0.5	504.0	293.75	249.875	204.25
56	2	lED_lPort	1	16	48	625.7083333333334	48	625.7083333333334	0		0	0.5	530.125	400.0	225.70833333333337	195.0
58	1	lED_sPort	1	16	48	836.2083333333334	45	834.8444444444444	3	856.6666666666666	0	0.3125	696.0	407.3125	428.89583333333337	337.75
58	2	hED_lPort	1	16	48	752.6041666666666	48	752.6041666666666	0		0	0.4375	636.4285714285714	427.1875	325.41666666666663	318.9375
58	3	hED_sPort	1	16	48	772.2291666666666	48	772.2291666666666	0		0	0.25	670.25	469.8125	302.41666666666663	192.6875
58	4	lED_lPort	1	16	48	769.936170212766	47	769.936170212766	0		1	0.3125	598.8	454.25	315.686170212766	228.8125
68	1	hED_sPort	1	16	48	815.25	43	813.0697674418604	0		4	0.3125	579.0	469.8125	345.4375	245.875
68	2	lED_lPort	1	16	48	812.1555555555556	45	812.1555555555556	0		3	0.4375	758.0	300.0	512.1555555555556	420.5625
68	3	hED_lPort	1	16	48	864.8888888888889	43	863.7209302325581	1	1170.0	3	0.375	700.0	300.0	564.8888888888889	453.75
68	4	lED_sPort	0	16	48	770.046511627907	42	774.7619047619048	0		5	0.4375	800.0	381.25		
69	1	hED_sPort	0	16	48	753.468085106383	42	768.452380952381	4	670.0	1	0.4375	850.2857142857143	257.3125		
69	2	lED_lPort	1	16	48	755.4468085106383	38	791.4736842105264	8	585.25	1	0.5625	702.3333333333334	243.75	511.69680851063833	510.25
69	3	lED_sPort	1	16	48	633.5434782608696	28	715.1851851851852	17	516.2941176470588	1	0.875	589.7142857142857	107.3125	512.751329787234	786.8125
69	4	hED_lPort	0	16	48	638.7555555555556	28	690.25	15	550.8666666666667	1	1.0	698.6875	82.3125		
70	1	hED_sPort	1	16	48	559.6041666666666	44	576.0909090909091	2	386.0	0	0.4375	494.57142857142856	343.75	215.85416666666663	166.25
70	2	lED_lPort	0	16	48	565.7708333333334	45	574.0444444444445	2	396.0	0	0.5	610.125	237.5		
70	3	lED_sPort	1	16	48	577.5434782608696	43	583.8604651162791	3	487.0	2	0.5	520.125	231.25	346.2934782608696	294.25
70	4	hED_lPort	0	16	48	573.7916666666666	41	593.4878048780488	6	467.5	0	0.625	584.4	231.25		
71	1	hED_sPort	1	16	48	515.4166666666666	40	536.65	0		0	0.5	456.625	237.5	277.91666666666663	248.5
71	2	lED_lPort	1	16	48	420.4782608695652	33	425.06060606060606	2	362.5	0	0.6875	342.3333333333333	125.0	277.9583333333333	315.375
71	3	lED_sPort	1	16	48	399.0625	38	403.05263157894734	0		0	0.8125	397.75	96.9375	302.125	426.75
71	4	hED_lPort	1	16	48	449.2826086956522	35	464.0882352941176	0		0	1.0	415.93333333333334	84.4375	346.125	934.5625
73	1	hED_sPort	1	16	48	745.7708333333334	48	745.7708333333334	0		0	0.3125	659.8	432.3125	313.45833333333337	202.75
73	2	lED_sPort	1	16	48	785.4375	47	790.2978723404256	1	557.0	0	0.4375	682.7142857142857	426.0625	359.375	320.8125
73	3	lED_lPort	1	16	48	728.8333333333334	48	728.8333333333334	0		0	0.4375	537.2857142857143	406.25	322.58333333333337	286.75
73	4	hED_lPort	1	16	48	692.3958333333334	48	692.3958333333334	0		0	0.375	630.3333333333334	393.75	298.64583333333337	243.875
74	1	hED_sPort	1	16	48	673.6382978723404	46	666.0	1	1025.0	1	0.4375	623.8571428571429	375.0	298.63829787234044	224.1875
74	2	lED_sPort	0	16	48	585.2553191489362	47	585.2553191489362	0		1	0.4375	726.7142857142857	375.0		
74	3	lED_lPort	1	16	48	663.9791666666666	48	663.9791666666666	0		0	0.4375	636.8571428571429	231.25	432.72916666666663	370.3125
74	4	hED_lPort	1	16	48	669.2708333333334	45	674.0888888888888	2	706.0	0	0.375	610.6666666666666	368.75	300.52083333333337	189.125
75	1	hED_sPort	1	16	48	525.7916666666666	46	533.0869565217391	1	365.0	0	0.5	427.75	206.25	319.54166666666663	296.25
75	2	lED_sPort	1	16	48	403.2	38	423.5833333333333	3	278.6666666666667	0	0.75	319.9166666666667	124.0	254.0	386.75
75	3	lED_lPort	1	16	48	342.2340425531915	30	410.82758620689657	2	287.5	0	1.0	245.3125	87.5625	247.54166666666669	904.4375
75	4	hED_lPort	1	16	48	460.29787234042556	41	461.875	0		0	0.625	407.5	175.0	275.7083333333333	340.625
77	1	hED_sPort	0	16	48	586.7659574468086	42	622.560975609756	0		0	0.8125	605.2307692307693	95.875		
77	2	lED_sPort	0	16	48	449.06666666666666	38	481.3783783783784	0		2	1.0	450.1333333333333	84.375		
77	3	lED_lPort	0	16	48	517.8837209302326	36	540.7714285714286	1	865.0	3	0.9375	568.8	88.625		
77	4	hED_lPort	0	16	48	495.3478260869565	39	538.0	0		2	1.0	498.9375	83.375		
78	1	lED_sPort	1	16	48	711.8478260869565	47	719.3111111111111	1	376.0	0	0.375	618.5	337.5	344.6875	289.75
78	2	lED_lPort	1	16	48	714.8085106382979	46	708.7826086956521	1	992.0	1	0.375	589.5	369.8125	344.9960106382979	271.9375
78	3	hED_lPort	1	16	48	702.4468085106383	46	697.695652173913	1	921.0	1	0.4375	605.0	306.25	396.19680851063833	350.5625
78	4	hED_sPort	1	16	48	651.0425531914893	42	664.2142857142857	1	474.0	1	0.4375	484.2857142857143	331.25	319.79255319148933	275.4375
80	1	hED_sPort	1	16	48	490.0833333333333	47	489.8085106382979	1	503.0	0	0.5	419.625	243.75	246.33333333333331	227.25
80	2	lED_lPort	0	16	48	461.625	47	468.48936170212767	0		0	0.625	469.4	201.0625		
80	3	lED_sPort	1	16	48	486.9375	47	488.6170212765957	0		0	0.5	464.125	193.75	293.1875	256.25
80	4	hED_lPort	1	16	48	464.2291666666667	47	468.3191489361702	0		0	0.5625	387.8888888888889	268.75	195.47916666666669	186.6875
83	1	hED_lPort	1	16	48	875.4166666666666	42	868.7380952380952	5	940.8	0	0.3125	763.0	387.5	487.91666666666663	426.75
83	2	lED_sPort	1	16	48	981.8085106382979	44	994.3863636363636	2	685.5	1	0.4375	771.0	400.0	581.8085106382979	559.4375
83	3	lED_lPort	1	16	48	838.8936170212766	44	840.5681818181819	3	814.3333333333334	1	0.375	752.5	437.5	401.39361702127655	373.375
83	4	hED_sPort	1	16	48	918.1276595744681	45	924.3555555555556	0		1	0.4375	735.4285714285714	343.75	574.3776595744681	549.125
84	1	hED_lPort	1	16	48	506.5	47	512.2553191489362	1	236.0	0	0.4375	422.7142857142857	300.0	206.5	140.5
84	2	lED_sPort	1	16	48	579.8297872340426	45	581.1333333333333	1	722.0	1	0.4375	472.42857142857144	243.75	336.07978723404256	272.75
84	3	lED_lPort	1	16	48	515.25	47	515.7446808510638	0		0	0.5625	447.55555555555554	262.5	252.75	233.5625
84	4	hED_sPort	1	16	48	512.8333333333334	47	516.3404255319149	0		0	0.5	424.875	250.0	262.83333333333337	240.0
89	1	hED_lPort	1	16	48	638.4791666666666	47	627.1489361702128	1	1171.0	0	0.5	533.375	308.375	330.10416666666663	300.125
89	2	lED_sPort	1	16	48	633.9791666666666	48	633.9791666666666	0		0	0.375	519.0	381.25	252.72916666666663	181.625
89	3	lED_lPort	1	16	48	572.125	47	570.0	1	672.0	0	0.4375	540.2857142857143	401.0625	171.0625	162.0625
89	4	hED_sPort	1	16	48	607.7916666666666	47	611.5531914893617	1	431.0	0	0.5	578.875	337.5	270.29166666666663	234.5
90	1	lED_sPort	1	16	48	580.0208333333334	47	582.0212765957447	1	486.0	0	0.5	505.625	343.75	236.27083333333337	153.25
90	2	lED_lPort	1	16	48	590.0652173913044	43	598.7674418604652	1	310.0	2	0.375	492.6666666666667	293.75	296.3152173913044	182.75
90	3	hED_lPort	1	16	48	559.3829787234042	41	587.3414634146342	2	559.5	1	0.5	470.7142857142857	287.5	271.8829787234042	241.0
90	4	hED_sPort	1	16	48	394.3863636363636	23	536.1304347826087	0		1	0.875	228.35714285714286	90.625	278.58776595744683	631.75
93	1	lED_sPort	1	16	48	775.3333333333334	45	774.7777777777778	1	1174.0	0	0.3125	555.2	369.8125	405.52083333333337	253.5625
93	2	lED_lPort	1	16	48	765.0851063829788	46	766.0652173913044	0		1	0.375	517.0	325.0	440.0851063829788	359.0
93	3	hED_lPort	1	16	48	782.7826086956521	45	777.0227272727273	0		1	0.5	490.85714285714283	331.25	434.8776595744681	364.75
93	4	hED_sPort	1	16	48	592.5454545454545	40	615.925	0		4	0.625	511.1	160.4375	432.1079545454545	465.4375
94	1	hED_lPort	1	16	48	663.0444444444445	44	670.4761904761905	1	746.0	0	0.375	611.8	351.0625	270.54166666666663	248.3125
94	2	lED_lPort	0	16	48	682.8695652173913	44	693.7380952380952	1	723.0	0	0.4375	807.75	314.625		
94	3	lED_sPort	1	16	48	633.45	36	677.1515151515151	1	833.0	2	0.5625	508.0	219.8125	331.01358695652175	394.5625
94	4	hED_sPort	1	16	48	634.6304347826087	45	637.5555555555555	0		1	0.4375	607.5	196.9375	424.1901595744681	365.5625
95	1	lED_sPort	1	16	48	724.875	48	724.875	0		0	0.375	604.3333333333334	376.0625	348.8125	256.5625
95	2	lED_lPort	1	16	48	785.6521739130435	46	789.2888888888889	0		0	0.3125	731.8	456.25	296.66666666666663	211.5
95	3	hED_lPort	1	16	48	833.1063829787234	47	833.1063829787234	0		0	0.375	673.5	393.75	422.0	314.75
95	4	hED_sPort	1	16	48	718.7173913043479	46	718.7173913043479	0		0	0.3125	570.2	318.75	370.02083333333337	299.0625
96	1	lED_sPort	1	16	48	401.5744680851064	42	416.95238095238096	0		1	0.75	278.27272727272725	113.5625	288.0119680851064	341.6875
96	2	lED_lPort	1	16	48	444.1041666666667	44	456.0681818181818	0		0	0.625	401.9	193.75	250.35416666666669	289.75
96	3	hED_lPort	0	16	48	388.3541666666667	40	417.7	0		0	0.625	395.2	218.75		
96	4	hED_sPort	1	16	48	482.8723404255319	44	492.09090909090907	1	582.0	1	0.6875	475.45454545454544	134.375	348.4973404255319	414.125
101	1	lED_sPort	1	16	48	456.63829787234044	47	460.04347826086956	0		0	0.6875	441.1818181818182	111.5	335.625	369.125
101	2	lED_lPort	1	16	48	467.9583333333333	43	479.2325581395349	1	290.0	0	0.625	417.8	181.25	286.7083333333333	298.0
101	3	hED_lPort	1	16	48	507.4583333333333	43	504.8837209302326	0		0	0.5625	487.1111111111111	134.375	373.0833333333333	375.0
101	4	hED_sPort	1	16	48	487.4791666666667	41	506.0243902439024	1	306.0	0	0.75	386.45454545454544	116.6875	370.7916666666667	455.3125
103	1	lED_sPort	0	16	48	593.2	36	657.7714285714286	1	454.0	0	1.0	619.0769230769231	89.75		
103	2	lED_lPort	1	16	48	723.2978723404256	42	736.2619047619048	1	641.0	1	0.875	569.6428571428571	91.8125	631.4853723404256	981.5625
103	3	hED_lPort	1	16	48	601.6304347826087	41	611.4146341463414	0		2	0.8125	497.15384615384613	99.0	502.63043478260875	779.875
103	4	hED_sPort	1	16	48	570.2340425531914	39	574.1538461538462	1	1330.0	1	0.6875	546.0909090909091	107.375	462.85904255319144	508.375
104	1	lED_sPort	1	16	48	796.125	46	790.5	2	925.5	0	0.4375	634.0	345.875	450.25	396.375
104	2	lED_lPort	0	16	48	600.4583333333334	45	616.0222222222222	0		0	0.625	613.0	212.5		
104	3	hED_lPort	1	16	48	677.6170212765958	44	691.3181818181819	0		1	0.625	618.8	122.9375	554.6795212765958	579.1875
104	4	hED_sPort	0	16	48	544.7708333333334	44	558.0909090909091	1	593.0	0	0.8125	672.8461538461538	140.625		
106	1	lED_sPort	0	16	48	748.0666666666667	32	776.3870967741935	8	573.1428571428571	1	0.4375	828.6666666666666	351.0625		
106	2	lED_lPort	1	16	48	681.4893617021277	39	690.6923076923077	1	487.0	1	0.5	462.125	225.0	456.48936170212767	432.5
106	3	hED_lPort	0	16	48	563.8085106382979	38	610.4324324324324	2	182.5	0	0.4375	636.2857142857143	250.0		
106	4	hED_sPort	1	16	48	736.3191489361702	40	731.475	1	1111.0	1	0.5	681.75	251.0625	485.2566489361702	458.4375
107	1	lED_sPort	0	16	48	776.2093023255813	42	786.4761904761905	0		5	0.25	930.75	488.5625		
107	2	lED_lPort	1	16	48	698.5957446808511	43	707.5581395348837	1	751.0	1	0.4375	653.0	381.25	317.3457446808511	322.875
107	3	hED_lPort	1	16	48	870.1219512195122	41	870.1219512195122	0		7	0.375	743.0	412.5	457.6219512195122	372.625
107	4	hED_sPort	1	16	48	828.2444444444444	41	847.0975609756098	0		3	0.375	581.3333333333334	287.5	540.7444444444444	439.875
