sub	ses	block	trial	timeout_earth	timeout_planet	state_earth	state_planet	stim_left	stim_right	rt_earth	rt_planet	choice_earth	response	points	stake	win	score	rewards1	rewards2	missed_earth	missed_planet	prev_state_earth	prev_state_planet	same_earth	same_planet
1	2	1	1	0	0	1	1	1	2	0.567	0.408	2	2	7.0		1	7	7	3	0	0	0.0	0.0	0	0
1	2	1	2	0	0	1	2	1	2	0.996	0.489	1	1	1.0		1	8	6	1	0	0	1.0	1.0	1	0
1	2	1	3	0	0	2	1	3	4	0.239	0.452	4	2	6.0		1	14	6	0	0	0	1.0	2.0	0	0
1	2	1	4	0	0	2	1	3	4	0.569	0.616	4	2	6.0		1	20	6	0	0	0	2.0	1.0	1	1
1	2	1	5	0	0	1	2	1	2	0.324	0.946	1	1	3.0		1	23	7	3	0	0	2.0	1.0	0	0
1	2	1	6	0	0	1	1	1	2	1.76	0.342	2	2	6.0		1	29	6	3	0	0	1.0	2.0	1	0
1	2	1	7	0	0	2	1	3	4	0.265	0.37	4	2	7.0		1	36	7	3	0	0	1.0	1.0	0	1
1	2	1	8	0	0	2	1	3	4	0.462	0.648	4	2	7.0		1	43	7	2	0	0	2.0	1.0	1	1
1	2	1	9	0	0	1	1	1	2	0.354	0.419	2	2	8.0		1	51	8	2	0	0	2.0	1.0	0	1
1	2	1	10	0	0	2	2	4	3	0.61	0.473	3	2	2.0		1	53	9	2	0	0	1.0	1.0	0	0
1	2	1	11	0	0	1	1	2	1	0.883	0.866	2	1	7.0		1	60	7	3	0	0	2.0	2.0	0	0
1	2	1	12	0	0	2	2	4	3	0.728	0.653	3	2	0.0		0	60	9	0	0	0	1.0	1.0	0	0
1	2	1	13	0	0	1	1	2	1	0.579	0.215	2	1	7.0		1	67	7	0	0	0	2.0	2.0	0	0
1	2	1	14	0	0	1	1	2	1	0.759	0.089	2	1	9.0		1	76	9	0	0	0	1.0	1.0	1	1
1	2	1	15	0	0	1	2	2	1	0.605	0.483	1	2	1.0		1	77	7	1	0	0	1.0	1.0	1	0
1	2	1	16	0	0	1	1	1	2	0.816	0.497	2	2	5.0		1	82	5	0	0	0	1.0	2.0	1	0
1	2	1	17	0	0	2	1	3	4	0.768	0.554	4	2	5.0		1	87	5	5	0	0	1.0	1.0	0	1
1	2	1	18	0	0	1	2	1	2	0.698	0.327	1	1	4.0		1	91	6	4	0	0	2.0	1.0	0	0
1	2	1	19	0	0	2	1	3	4	0.842	0.564	4	2	9.0		1	100	9	3	0	0	1.0	2.0	0	0
1	2	1	20	0	0	1	1	1	2	1.72	0.742	2	2	8.0		1	108	8	7	0	0	2.0	1.0	0	1
1	2	1	21	0	0	1	2	2	1	1.749	0.462	1	2	9.0		1	117	8	9	0	0	1.0	1.0	1	0
1	2	1	22	0	0	2	2	3	4	1.079	0.425	3	1	7.0		1	124	7	7	0	0	1.0	2.0	0	1
1	2	1	23	0	0	1	1	1	2	0.389	1.343	2	2	7.0		1	131	7	5	0	0	2.0	2.0	0	0
1	2	1	24	0	0	2	1	3	4	0.333	0.372	4	2	7.0		1	138	7	4	0	0	1.0	1.0	0	1
1	2	1	25	0	0	1	1	1	2	1.332	0.081	2	2	7.0		1	145	7	4	0	0	2.0	1.0	0	1
1	2	2	26	0	0	2	1	3	4	0.454	0.056	4	2	9.0		1	154	9	4	0	0	1.0	1.0	0	1
1	2	2	27	0	0	2	1	3	4	0.943	0.402	4	2	7.0		1	161	7	4	0	0	2.0	1.0	1	1
1	2	2	28	0	0	2	2	4	3	1.226	0.466	3	2	7.0		1	168	8	7	0	0	2.0	1.0	1	0
1	2	2	29	0	0	1	2	1	2	1.593	0.413	1	1	9.0		1	177	7	9	0	0	2.0	2.0	0	1
1	2	2	30	1	0	2	0	3	4	-1.0	-1.0	-1	3	0.0		0	177	3	7	1	1	1.0	2.0	0	0
1	2	2	31	0	0	2	2	4	3	0.393	0.196	3	2	7.0		1	184	5	7	0	0	2.0	0.0	1	0
1	2	2	32	0	1	1	1	1	2	0.588	-1.0	2	2	0.0		0	184	1	4	0	1	2.0	2.0	0	0
1	2	2	33	0	0	1	1	1	2	0.451	1.068	2	2	2.0		1	186	2	4	0	0	1.0	1.0	1	1
1	2	2	34	0	0	1	2	1	2	0.791	0.611	1	1	7.0		1	193	4	7	0	0	1.0	1.0	1	0
1	2	2	35	0	0	1	2	2	1	0.832	0.399	1	2	5.0		1	198	4	5	0	0	1.0	2.0	1	1
1	2	2	36	1	0	1	0	1	2	-1.0	-1.0	-1	3	0.0		0	198	4	8	1	1	1.0	2.0	1	0
1	2	2	37	0	0	2	2	3	4	0.243	0.422	3	1	7.0		1	205	0	7	0	0	1.0	0.0	0	0
1	2	2	38	0	0	2	2	4	3	1.943	0.529	3	2	9.0		1	214	0	9	0	0	2.0	2.0	1	1
1	2	2	39	0	0	2	1	4	3	0.001	0.126	4	1	2.0		1	216	2	6	0	0	2.0	2.0	1	0
1	2	2	40	0	0	2	1	3	4	0.852	0.057	4	2	6.0		1	222	6	3	0	0	2.0	1.0	1	1
1	2	2	41	0	0	1	1	1	2	0.068	0.015	2	2	6.0		1	228	6	4	0	0	2.0	1.0	0	1
1	2	2	42	0	0	1	2	2	1	0.035	1.301	1	2	4.0		1	232	5	4	0	0	1.0	1.0	1	0
1	2	2	43	0	0	1	1	1	2	0.001	0.074	2	2	5.0		1	237	5	2	0	0	1.0	2.0	1	0
1	2	2	44	0	0	1	2	2	1	0.239	0.001	1	2	1.0		1	238	3	1	0	0	1.0	1.0	1	0
1	2	2	45	0	0	2	2	4	3	0.264	0.063	3	2	1.0		1	239	0	1	0	0	1.0	2.0	0	1
1	2	2	46	0	0	1	2	2	1	0.057	0.047	1	2	3.0		1	242	0	3	0	0	2.0	2.0	0	1
1	2	2	47	1	0	2	0	4	3	-1.0	-1.0	-1	3	0.0		0	242	6	6	1	1	1.0	2.0	0	0
1	2	2	48	0	0	2	1	4	3	0.608	0.008	4	1	3.0		1	245	3	6	0	0	2.0	0.0	1	0
1	2	2	49	0	0	2	2	3	4	0.696	0.977	3	1	5.0		1	250	2	5	0	0	2.0	1.0	1	0
1	2	2	50	0	0	1	1	1	2	0.376	0.386	2	2	4.0		1	254	4	8	0	0	2.0	2.0	0	0
1	2	3	51	0	0	1	2	2	1	1.196	0.782	1	2	8.0		1	262	3	8	0	0	1.0	1.0	1	0
1	2	3	52	0	0	2	1	3	4	0.287	0.46	4	2	5.0		1	267	5	7	0	0	1.0	2.0	0	0
1	2	3	53	0	0	1	1	1	2	0.642	0.622	2	2	6.0		1	273	6	4	0	0	2.0	1.0	0	1
1	2	3	54	0	0	2	1	3	4	0.369	0.34	4	2	9.0		1	282	9	4	0	0	1.0	1.0	0	1
1	2	3	55	0	0	2	2	4	3	0.12	0.265	3	2	3.0		1	285	9	3	0	0	2.0	1.0	1	0
1	2	3	56	0	0	2	2	4	3	0.373	1.335	3	2	8.0		1	293	9	8	0	0	2.0	2.0	1	1
1	2	3	57	0	0	1	2	1	2	0.376	0.307	1	1	8.0		1	301	9	8	0	0	2.0	2.0	0	1
1	2	3	58	0	0	1	2	1	2	0.722	1.488	1	1	7.0		1	308	5	7	0	0	1.0	2.0	1	1
1	2	3	59	0	0	1	2	1	2	0.465	0.439	1	1	9.0		1	317	5	9	0	0	1.0	2.0	1	1
1	2	3	60	0	0	1	1	2	1	0.448	0.452	2	1	4.0		1	321	4	7	0	0	1.0	2.0	1	0
1	2	3	61	0	0	1	1	2	1	0.726	0.71	2	1	4.0		1	325	4	4	0	0	1.0	1.0	1	1
1	2	3	62	0	0	2	1	3	4	0.685	0.147	4	2	5.0		1	330	5	0	0	0	1.0	1.0	0	1
1	2	3	63	0	0	1	2	2	1	1.075	0.173	1	2	1.0		1	331	3	1	0	0	2.0	1.0	0	0
1	2	3	64	0	0	1	2	2	1	1.501	0.001	1	2	2.0		1	333	3	2	0	0	1.0	2.0	1	1
1	2	3	65	0	0	1	1	1	2	1.249	0.021	2	2	2.0		1	335	2	4	0	0	1.0	2.0	1	0
1	2	3	66	0	0	2	2	4	3	1.08	0.018	3	2	5.0		1	340	1	5	0	0	1.0	1.0	0	0
1	2	3	67	0	1	1	2	2	1	1.669	-1.0	1	2	0.0		0	340	2	5	0	1	2.0	2.0	0	1
1	2	3	68	0	0	2	1	3	4	0.783	0.478	4	2	3.0		1	343	3	6	0	0	1.0	2.0	0	0
1	2	3	69	0	0	2	1	3	4	1.458	0.064	4	2	4.0		1	347	4	4	0	0	2.0	1.0	1	1
1	2	3	70	0	0	2	2	4	3	1.358	0.037	3	2	5.0		1	352	7	5	0	0	2.0	1.0	1	0
1	2	3	71	0	0	1	2	1	2	1.293	0.446	1	1	1.0		1	353	8	1	0	0	2.0	2.0	0	1
1	2	3	72	0	0	1	1	2	1	0.737	0.001	2	1	4.0		1	357	4	1	0	0	1.0	2.0	1	0
1	2	3	73	0	0	1	1	1	2	1.455	0.214	2	2	7.0		1	364	7	6	0	0	1.0	1.0	1	1
1	2	3	74	0	1	1	1	2	1	1.416	-1.0	2	1	0.0		0	364	8	2	0	1	1.0	1.0	1	1
1	2	3	75	0	0	2	2	3	4	0.599	0.343	3	1	2.0		1	366	8	2	0	0	1.0	1.0	0	0
1	2	4	76	0	0	1	1	1	2	0.763	0.445	2	2	2.0		1	368	2	1	0	0	2.0	2.0	0	0
1	2	4	77	0	0	2	2	3	4	0.531	0.668	3	1	0.0		0	368	4	0	0	0	1.0	1.0	0	0
1	2	4	78	0	0	2	2	4	3	0.201	0.422	3	2	3.0		1	371	1	3	0	0	2.0	2.0	1	1
1	2	4	79	0	0	2	2	3	4	0.563	0.386	3	1	4.0		1	375	0	4	0	0	2.0	2.0	1	1
1	2	4	80	0	0	2	2	4	3	0.448	0.434	3	2	6.0		1	381	1	6	0	0	2.0	2.0	1	1
1	2	4	81	0	0	1	2	1	2	0.136	0.001	1	1	4.0		1	385	0	4	0	0	2.0	2.0	0	1
1	2	4	82	0	0	2	1	3	4	0.002	0.23	4	2	1.0		1	386	1	3	0	0	1.0	2.0	0	0
1	2	4	83	0	0	1	1	2	1	0.001	0.115	2	1	0.0		0	386	0	5	0	0	2.0	1.0	0	1
1	2	4	84	0	0	2	2	4	3	0.35	0.485	3	2	6.0		1	392	5	6	0	0	1.0	1.0	0	0
1	2	4	85	0	0	2	1	3	4	0.001	0.774	4	2	6.0		1	398	6	5	0	0	2.0	2.0	1	0
1	2	4	86	0	0	2	1	3	4	0.313	0.958	4	2	5.0		1	403	5	7	0	0	2.0	1.0	1	1
1	2	4	87	0	0	2	1	3	4	1.122	0.496	4	2	5.0		1	408	5	8	0	0	2.0	1.0	1	1
1	2	4	88	0	0	2	2	4	3	0.581	0.001	3	2	7.0		1	415	9	7	0	0	2.0	1.0	1	0
1	2	4	89	0	0	2	1	4	3	0.001	0.358	4	1	9.0		1	424	9	9	0	0	2.0	2.0	1	0
1	2	4	90	0	0	1	2	2	1	1.214	0.49	1	2	8.0		1	432	6	8	0	0	2.0	1.0	0	0
1	2	4	91	0	0	2	1	3	4	1.623	0.424	4	2	9.0		1	441	9	6	0	0	1.0	2.0	0	0
1	2	4	92	0	0	1	1	2	1	0.445	0.366	2	1	7.0		1	448	7	7	0	0	2.0	1.0	0	1
1	2	4	93	0	0	1	2	2	1	0.919	0.702	1	2	6.0		1	454	5	6	0	0	1.0	1.0	1	0
1	2	4	94	0	0	2	1	4	3	0.651	0.311	4	1	4.0		1	458	4	4	0	0	1.0	2.0	0	0
1	2	4	95	0	0	2	2	4	3	0.424	0.732	3	2	3.0		1	461	7	3	0	0	2.0	1.0	1	0
1	2	4	96	0	0	1	2	2	1	1.549	1.088	1	2	3.0		1	464	8	3	0	0	2.0	2.0	0	1
1	2	4	97	0	0	1	1	1	2	0.927	0.447	2	2	6.0		1	470	6	3	0	0	1.0	2.0	1	0
1	2	4	98	0	0	2	1	4	3	1.014	0.406	4	1	5.0		1	475	5	4	0	0	1.0	1.0	0	1
1	2	4	99	0	0	2	2	4	3	0.585	1.023	3	2	8.0		1	483	8	8	0	0	2.0	1.0	1	0
1	2	4	100	0	0	1	2	2	1	0.549	1.28	1	2	9.0		1	492	9	9	0	0	2.0	2.0	0	1
2	2	1	1	0	0	2	2	3	4	0.875	0.531	3	1	3.0		1	3	5	3	0	0	0.0	0.0	0	0
2	2	1	2	0	0	1	2	2	1	0.875	0.651	1	2	6.0		1	9	2	6	0	0	2.0	2.0	0	1
2	2	1	3	0	0	2	1	4	3	1.523	0.843	4	1	4.0		1	13	4	4	0	0	1.0	2.0	0	0
2	2	1	4	0	0	1	1	1	2	1.827	0.546	2	2	4.0		1	17	4	4	0	0	2.0	1.0	0	1
2	2	1	5	0	0	1	2	1	2	1.474	0.513	1	1	4.0		1	21	2	4	0	0	1.0	1.0	1	0
2	2	1	6	0	0	2	1	3	4	0.001	0.511	4	2	4.0		1	25	4	5	0	0	1.0	2.0	0	0
2	2	1	7	0	1	1	2	1	2	1.575	-1.0	1	1	0.0		0	25	4	5	0	1	2.0	1.0	0	0
2	2	1	8	1	0	1	0	1	2	-1.0	-1.0	-1	3	0.0		0	25	1	5	1	1	1.0	2.0	1	0
2	2	1	9	0	0	1	2	1	2	0.67	0.054	1	1	9.0		1	34	1	9	0	0	1.0	0.0	1	0
2	2	1	10	0	0	2	1	4	3	1.439	0.711	4	1	0.0		0	34	0	9	0	0	1.0	2.0	0	0
2	2	1	11	0	0	2	2	4	3	0.982	0.605	3	2	8.0		1	42	2	8	0	0	2.0	1.0	1	0
2	2	1	12	0	0	2	2	3	4	1.607	0.335	3	1	9.0		1	51	4	9	0	0	2.0	2.0	1	1
2	2	1	13	0	0	2	1	4	3	0.712	0.272	4	1	5.0		1	56	5	7	0	0	2.0	2.0	1	0
2	2	1	14	0	0	2	1	3	4	0.396	0.684	4	2	2.0		1	58	2	8	0	0	2.0	1.0	1	1
2	2	1	15	0	0	2	1	4	3	0.001	0.001	4	1	1.0		1	59	1	6	0	0	2.0	1.0	1	1
2	2	1	16	0	0	1	1	1	2	1.294	0.262	2	2	2.0		1	61	2	4	0	0	2.0	1.0	0	1
2	2	1	17	0	0	2	2	3	4	1.178	1.01	3	1	5.0		1	66	0	5	0	0	1.0	1.0	0	0
2	2	1	18	0	0	2	1	4	3	1.055	0.454	4	1	2.0		1	68	2	5	0	0	2.0	2.0	1	0
2	2	1	19	0	0	2	1	3	4	0.65	0.537	4	2	2.0		1	70	2	4	0	0	2.0	1.0	1	1
2	2	1	20	0	0	2	2	3	4	1.542	0.925	3	1	3.0		1	73	2	3	0	0	2.0	1.0	1	0
2	2	1	21	0	0	2	1	4	3	1.023	0.575	4	1	1.0		1	74	1	5	0	0	2.0	2.0	1	0
2	2	1	22	0	0	1	2	2	1	0.879	0.343	1	2	5.0		1	79	2	5	0	0	2.0	1.0	0	0
2	2	1	23	0	0	1	2	1	2	0.331	0.522	1	1	4.0		1	83	0	4	0	0	1.0	2.0	1	1
2	2	1	24	0	0	1	2	2	1	1.497	0.129	1	2	3.0		1	86	0	3	0	0	1.0	2.0	1	1
2	2	1	25	0	0	2	1	4	3	0.363	0.427	4	1	3.0		1	89	3	9	0	0	1.0	2.0	0	0
2	2	2	26	0	0	2	2	3	4	1.025	0.321	3	1	9.0		1	98	1	9	0	0	2.0	1.0	1	0
2	2	2	27	0	0	1	2	2	1	0.896	0.28	1	2	8.0		1	106	2	8	0	0	2.0	2.0	0	1
2	2	2	28	0	0	1	1	1	2	1.724	0.556	2	2	4.0		1	110	4	9	0	0	1.0	2.0	1	0
2	2	2	29	0	0	2	1	4	3	1.459	1.611	4	1	4.0		1	114	4	9	0	0	1.0	1.0	0	1
2	2	2	30	0	0	1	2	1	2	1.298	1.73	1	1	7.0		1	121	3	7	0	0	2.0	1.0	0	0
2	2	2	31	0	0	1	1	1	2	0.969	0.649	2	2	1.0		1	122	1	8	0	0	1.0	2.0	1	0
2	2	2	32	0	0	2	2	4	3	0.001	0.015	3	2	7.0		1	129	2	7	0	0	1.0	1.0	0	0
2	2	2	33	0	0	1	2	2	1	0.605	0.652	1	2	5.0		1	134	1	5	0	0	2.0	2.0	0	1
2	2	2	34	0	0	2	1	4	3	1.233	0.896	4	1	1.0		1	135	1	1	0	0	1.0	2.0	0	0
2	2	2	35	0	0	1	2	2	1	0.6	0.35	1	2	4.0		1	139	2	4	0	0	2.0	1.0	0	0
2	2	2	36	0	0	1	1	1	2	1.5	0.9	2	2	3.0		1	142	3	2	0	0	1.0	2.0	1	0
2	2	2	37	0	0	1	1	2	1	1.037	0.509	2	1	4.0		1	146	4	1	0	0	1.0	1.0	1	1
2	2	2	38	0	0	2	1	3	4	1.116	0.001	4	2	0.0		0	146	0	1	0	0	1.0	1.0	0	1
2	2	2	39	0	0	2	2	4	3	1.41	0.666	3	2	2.0		1	148	1	2	0	0	2.0	1.0	1	0
2	2	2	40	0	0	1	1	1	2	0.798	0.493	2	2	1.0		1	149	1	0	0	0	2.0	2.0	0	0
2	2	2	41	0	0	2	1	4	3	0.996	0.3	4	1	1.0		1	150	1	1	0	0	1.0	1.0	0	1
2	2	2	42	0	0	1	1	1	2	1.675	0.579	2	2	1.0		1	151	1	0	0	0	2.0	1.0	0	1
2	2	2	43	0	0	1	1	1	2	1.122	0.683	2	2	0.0		0	151	0	0	0	0	1.0	1.0	1	1
2	2	2	44	0	0	2	2	4	3	1.377	1.145	3	2	1.0		1	152	4	1	0	0	1.0	1.0	0	0
2	2	2	45	1	0	2	0	3	4	-1.0	-1.0	-1	3	0.0		0	152	6	3	1	1	2.0	2.0	1	0
2	2	2	46	0	0	2	1	3	4	0.849	0.616	4	2	2.0		1	154	2	2	0	0	2.0	0.0	1	0
2	2	2	47	0	0	2	2	3	4	0.468	1.267	3	1	4.0		1	158	1	4	0	0	2.0	1.0	1	0
2	2	2	48	0	0	1	2	1	2	1.426	0.0	1	1	7.0		1	165	2	7	0	0	2.0	2.0	0	1
2	2	2	49	0	0	2	2	4	3	1.016	0.943	3	2	6.0		1	171	0	6	0	0	1.0	2.0	0	1
2	2	2	50	0	0	2	2	4	3	1.137	0.393	3	2	5.0		1	176	2	5	0	0	2.0	2.0	1	1
2	2	3	51	0	0	1	1	1	2	1.087	0.839	2	2	1.0		1	177	1	4	0	0	2.0	2.0	0	0
2	2	3	52	0	0	1	2	2	1	0.493	0.821	1	2	7.0		1	184	3	7	0	0	1.0	1.0	1	0
2	2	3	53	0	0	2	2	4	3	1.172	0.554	3	2	6.0		1	190	3	6	0	0	1.0	2.0	0	1
2	2	3	54	0	0	1	1	1	2	1.547	0.842	2	2	4.0		1	194	4	8	0	0	2.0	2.0	0	0
2	2	3	55	0	0	1	1	2	1	0.61	0.93	2	1	9.0		1	203	9	9	0	0	1.0	1.0	1	1
2	2	3	56	0	0	2	1	3	4	1.5	1.147	4	2	8.0		1	211	8	7	0	0	1.0	1.0	0	1
2	2	3	57	0	0	1	1	1	2	0.991	0.399	2	2	8.0		1	219	8	7	0	0	2.0	1.0	0	1
2	2	3	58	0	0	2	1	3	4	0.386	0.53	4	2	8.0		1	227	8	8	0	0	1.0	1.0	0	1
2	2	3	59	0	0	1	2	1	2	0.838	0.75	1	1	8.0		1	235	9	8	0	0	2.0	1.0	0	0
2	2	3	60	0	0	1	1	1	2	0.634	1.169	2	2	8.0		1	243	8	9	0	0	1.0	2.0	1	0
2	2	3	61	0	0	1	2	2	1	0.437	0.148	1	2	8.0		1	251	8	8	0	0	1.0	1.0	1	0
2	2	3	62	0	0	2	1	4	3	0.393	0.152	4	1	8.0		1	259	8	8	0	0	1.0	2.0	0	0
2	2	3	63	0	0	1	1	1	2	0.06	0.179	2	2	7.0		1	266	7	7	0	0	2.0	1.0	0	1
2	2	3	64	0	0	2	1	3	4	1.091	1.003	4	2	6.0		1	272	6	9	0	0	1.0	1.0	0	1
2	2	3	65	0	1	1	1	2	1	0.531	-1.0	2	1	0.0		0	272	7	9	0	1	2.0	1.0	0	1
2	2	3	66	0	0	1	2	1	2	0.675	0.091	1	1	8.0		1	280	6	8	0	0	1.0	1.0	1	0
2	2	3	67	0	0	1	1	1	2	0.959	1.503	2	2	5.0		1	285	5	7	0	0	1.0	2.0	1	0
2	2	3	68	0	0	1	1	1	2	0.675	0.266	2	2	8.0		1	293	8	8	0	0	1.0	1.0	1	1
2	2	3	69	0	0	1	2	2	1	0.847	0.454	1	2	6.0		1	299	8	6	0	0	1.0	1.0	1	0
2	2	3	70	0	0	2	2	3	4	1.047	0.527	3	1	8.0		1	307	9	8	0	0	1.0	2.0	0	1
2	2	3	71	0	0	2	2	4	3	0.875	0.515	3	2	8.0		1	315	7	8	0	0	2.0	2.0	1	1
2	2	3	72	0	0	2	1	3	4	0.495	0.415	4	2	8.0		1	323	8	8	0	0	2.0	2.0	1	0
2	2	3	73	0	0	1	2	2	1	0.41	0.306	1	2	5.0		1	328	7	5	0	0	2.0	1.0	0	0
2	2	3	74	0	0	2	1	4	3	0.983	1.71	4	1	6.0		1	334	6	2	0	0	1.0	2.0	0	0
2	2	3	75	0	0	2	1	4	3	0.552	0.104	4	1	4.0		1	338	4	1	0	0	2.0	1.0	1	1
2	2	4	76	0	0	1	1	2	1	0.441	0.305	2	1	8.0		1	346	8	4	0	0	2.0	1.0	0	1
2	2	4	77	0	0	2	1	3	4	0.797	0.373	4	2	7.0		1	353	7	5	0	0	1.0	1.0	0	1
2	2	4	78	0	0	2	2	3	4	1.14	0.828	3	1	2.0		1	355	7	2	0	0	2.0	1.0	1	0
2	2	4	79	0	0	1	1	1	2	1.224	0.792	2	2	8.0		1	363	8	6	0	0	2.0	2.0	0	0
2	2	4	80	0	0	2	2	3	4	0.388	0.316	3	1	9.0		1	372	8	9	0	0	1.0	1.0	0	0
2	2	4	81	0	0	2	2	3	4	0.485	0.781	3	1	8.0		1	380	8	8	0	0	2.0	2.0	1	1
2	2	4	82	0	0	1	1	2	1	1.065	0.984	2	1	8.0		1	388	8	5	0	0	2.0	2.0	0	0
2	2	4	83	0	0	1	2	2	1	1.363	0.515	1	2	2.0		1	390	7	2	0	0	1.0	1.0	1	0
2	2	4	84	0	0	1	1	1	2	1.016	0.398	2	2	8.0		1	398	8	4	0	0	1.0	2.0	1	0
2	2	4	85	0	0	1	2	1	2	0.37	0.794	1	1	4.0		1	402	7	4	0	0	1.0	1.0	1	0
2	2	4	86	0	0	2	2	3	4	1.033	0.913	3	1	5.0		1	407	8	5	0	0	1.0	2.0	0	1
2	2	4	87	0	0	2	1	4	3	0.381	0.451	4	1	5.0		1	412	5	4	0	0	2.0	2.0	1	0
2	2	4	88	0	0	2	2	3	4	0.927	0.695	3	1	3.0		1	415	7	3	0	0	2.0	1.0	1	0
2	2	4	89	0	0	1	1	1	2	0.369	1.242	2	2	9.0		1	424	9	3	0	0	2.0	2.0	0	0
2	2	4	90	1	0	2	0	3	4	-1.0	-1.0	-1	3	0.0		0	424	9	2	1	1	1.0	1.0	0	0
2	2	4	91	0	0	2	1	3	4	0.339	0.443	4	2	8.0		1	432	8	0	0	0	2.0	0.0	1	0
2	2	4	92	0	0	2	2	3	4	0.431	1.718	3	1	0.0		0	432	7	0	0	0	2.0	1.0	1	0
2	2	4	93	0	0	1	1	1	2	0.597	0.677	2	2	6.0		1	438	6	1	0	0	2.0	2.0	0	0
2	2	4	94	0	0	1	2	2	1	1.366	0.645	1	2	0.0		0	438	6	0	0	0	1.0	1.0	1	0
2	2	4	95	0	0	1	1	1	2	1.221	0.581	2	2	3.0		1	441	3	3	0	0	1.0	2.0	1	0
2	2	4	96	0	0	1	1	2	1	1.006	0.397	2	1	3.0		1	444	3	2	0	0	1.0	1.0	1	1
2	2	4	97	0	0	2	1	4	3	0.992	0.663	4	1	2.0		1	446	2	3	0	0	1.0	1.0	0	1
2	2	4	98	0	0	2	2	3	4	0.82	0.276	3	1	2.0		1	448	4	2	0	0	2.0	1.0	1	0
2	2	4	99	0	0	1	1	2	1	0.696	0.473	2	1	4.0		1	452	4	4	0	0	2.0	2.0	0	0
2	2	4	100	0	0	2	1	4	3	0.768	1.024	4	1	8.0		1	460	8	7	0	0	1.0	1.0	0	1
3	2	1	1	0	0	2	1	3	4	0.992	1.149	4	2	7.0		1	7	7	3	0	0	0.0	0.0	0	0
3	2	1	2	0	0	2	2	3	4	0.682	0.323	3	1	3.0		1	10	9	3	0	0	2.0	1.0	1	0
3	2	1	3	0	0	2	2	4	3	0.973	0.313	3	2	4.0		1	14	8	4	0	0	2.0	2.0	1	1
3	2	1	4	0	0	2	2	4	3	0.761	0.61	3	2	4.0		1	18	6	4	0	0	2.0	2.0	1	1
3	2	1	5	0	0	1	1	2	1	0.865	0.856	2	1	5.0		1	23	5	5	0	0	2.0	2.0	0	0
3	2	1	6	0	0	1	2	1	2	0.813	0.319	1	1	8.0		1	31	4	8	0	0	1.0	1.0	1	0
3	2	1	7	0	0	2	2	4	3	0.597	0.473	3	2	9.0		1	40	5	9	0	0	1.0	2.0	0	1
3	2	1	8	0	0	2	2	4	3	0.766	0.952	3	2	7.0		1	47	6	7	0	0	2.0	2.0	1	1
3	2	1	9	0	0	1	2	1	2	0.972	0.611	1	1	8.0		1	55	5	8	0	0	2.0	2.0	0	1
3	2	1	10	0	0	1	2	1	2	0.54	0.688	1	1	7.0		1	62	4	7	0	0	1.0	2.0	1	1
3	2	1	11	0	0	2	1	3	4	0.769	0.449	4	2	7.0		1	69	7	3	0	0	1.0	2.0	0	0
3	2	1	12	0	0	1	2	1	2	0.748	0.471	1	1	0.0		0	69	6	0	0	0	2.0	1.0	0	0
3	2	1	13	0	0	1	2	2	1	1.197	0.323	1	2	1.0		1	70	8	1	0	0	1.0	2.0	1	1
3	2	1	14	0	0	2	2	3	4	0.887	0.377	3	1	0.0		0	70	7	0	0	0	1.0	2.0	0	1
3	2	1	15	0	0	2	2	4	3	1.334	0.771	3	2	1.0		1	71	7	1	0	0	2.0	2.0	1	1
3	2	1	16	0	0	1	1	2	1	1.355	0.631	2	1	3.0		1	74	3	0	0	0	2.0	2.0	0	0
3	2	1	17	0	0	2	2	4	3	0.809	0.569	3	2	0.0		0	74	2	0	0	0	1.0	1.0	0	0
3	2	1	18	0	0	1	2	2	1	1.413	0.331	1	2	1.0		1	75	2	1	0	0	2.0	2.0	0	1
3	2	1	19	0	0	2	2	4	3	1.001	1.092	3	2	2.0		1	77	0	2	0	0	1.0	2.0	0	1
3	2	1	20	0	0	1	2	2	1	1.294	0.838	1	2	3.0		1	80	2	3	0	0	2.0	2.0	0	1
3	2	1	21	0	0	2	2	3	4	0.738	0.972	3	1	2.0		1	82	3	2	0	0	1.0	2.0	0	1
3	2	1	22	0	0	1	2	2	1	1.03	0.711	1	2	5.0		1	87	9	5	0	0	2.0	2.0	0	1
3	2	1	23	0	0	2	2	4	3	0.983	0.676	3	2	8.0		1	95	8	8	0	0	1.0	2.0	0	1
3	2	1	24	0	0	1	2	1	2	1.516	0.628	1	1	6.0		1	101	9	6	0	0	2.0	2.0	0	1
3	2	1	25	0	0	2	1	3	4	0.818	0.689	4	2	6.0		1	107	6	6	0	0	1.0	2.0	0	0
3	2	2	26	0	0	2	2	3	4	0.994	0.371	3	1	2.0		1	109	6	2	0	0	2.0	1.0	1	0
3	2	2	27	0	0	2	2	4	3	0.744	0.439	3	2	0.0		0	109	5	0	0	0	2.0	2.0	1	1
3	2	2	28	0	0	2	2	3	4	0.864	0.405	3	1	2.0		1	111	5	2	0	0	2.0	2.0	1	1
3	2	2	29	0	0	2	2	4	3	0.625	0.739	3	2	2.0		1	113	8	2	0	0	2.0	2.0	1	1
3	2	2	30	0	0	2	2	4	3	1.009	0.633	3	2	2.0		1	115	8	2	0	0	2.0	2.0	1	1
3	2	2	31	0	0	2	2	4	3	0.938	0.453	3	2	1.0		1	116	8	1	0	0	2.0	2.0	1	1
3	2	2	32	0	0	1	1	1	2	1.245	0.623	2	2	7.0		1	123	7	2	0	0	2.0	2.0	0	0
3	2	2	33	0	0	1	2	1	2	0.522	0.292	1	1	3.0		1	126	6	3	0	0	1.0	1.0	1	0
3	2	2	34	0	0	1	2	2	1	0.903	0.288	1	2	3.0		1	129	3	3	0	0	1.0	2.0	1	1
3	2	2	35	0	0	2	2	4	3	0.737	0.616	3	2	4.0		1	133	1	4	0	0	1.0	2.0	0	1
3	2	2	36	0	0	2	2	4	3	0.567	0.555	3	2	2.0		1	135	4	2	0	0	2.0	2.0	1	1
3	2	2	37	0	0	2	2	4	3	0.55	0.613	3	2	2.0		1	137	3	2	0	0	2.0	2.0	1	1
3	2	2	38	0	0	2	2	3	4	1.151	0.611	3	1	1.0		1	138	2	1	0	0	2.0	2.0	1	1
3	2	2	39	0	0	2	1	4	3	0.889	0.574	4	1	1.0		1	139	1	6	0	0	2.0	2.0	1	0
3	2	2	40	0	0	1	2	1	2	0.946	0.54	1	1	6.0		1	145	1	6	0	0	2.0	1.0	0	0
3	2	2	41	0	0	1	2	2	1	0.666	1.276	1	2	4.0		1	149	1	4	0	0	1.0	2.0	1	1
3	2	2	42	0	0	2	2	4	3	1.086	0.659	3	2	5.0		1	154	0	5	0	0	1.0	2.0	0	1
3	2	2	43	0	0	2	2	3	4	1.041	0.756	3	1	5.0		1	159	1	5	0	0	2.0	2.0	1	1
3	2	2	44	0	0	1	2	1	2	0.888	0.596	1	1	5.0		1	164	1	5	0	0	2.0	2.0	0	1
3	2	2	45	0	0	2	2	3	4	0.984	0.494	3	1	7.0		1	171	0	7	0	0	1.0	2.0	0	1
3	2	2	46	0	0	1	2	2	1	0.846	0.747	1	2	9.0		1	180	2	9	0	0	2.0	2.0	0	1
3	2	2	47	0	0	1	2	1	2	1.206	0.724	1	1	7.0		1	187	4	7	0	0	1.0	2.0	1	1
3	2	2	48	0	0	2	2	3	4	0.922	0.633	3	1	6.0		1	193	7	6	0	0	1.0	2.0	0	1
3	2	2	49	0	0	1	2	1	2	1.371	0.646	1	1	7.0		1	200	8	7	0	0	2.0	2.0	0	1
3	2	2	50	0	0	1	1	1	2	1.192	0.715	2	2	8.0		1	208	8	8	0	0	1.0	2.0	1	0
3	2	3	51	0	0	2	2	4	3	0.875	0.609	3	2	9.0		1	217	9	9	0	0	1.0	1.0	0	0
3	2	3	52	0	0	2	2	3	4	0.874	0.499	3	1	9.0		1	226	6	9	0	0	2.0	2.0	1	1
3	2	3	53	0	0	2	2	4	3	1.012	0.515	3	2	8.0		1	234	4	8	0	0	2.0	2.0	1	1
3	2	3	54	0	0	2	2	4	3	0.706	0.707	3	2	8.0		1	242	6	8	0	0	2.0	2.0	1	1
3	2	3	55	0	0	1	2	2	1	0.908	0.838	1	2	8.0		1	250	5	8	0	0	2.0	2.0	0	1
3	2	3	56	0	0	2	2	3	4	1.229	0.49	3	1	8.0		1	258	4	8	0	0	1.0	2.0	0	1
3	2	3	57	0	0	1	2	1	2	0.762	0.946	1	1	8.0		1	266	2	8	0	0	2.0	2.0	0	1
3	2	3	58	0	0	2	2	4	3	1.263	0.526	3	2	8.0		1	274	1	8	0	0	1.0	2.0	0	1
3	2	3	59	0	0	1	2	1	2	0.488	0.692	1	1	7.0		1	281	5	7	0	0	2.0	2.0	0	1
3	2	3	60	0	0	2	2	3	4	0.644	0.638	3	1	6.0		1	287	7	6	0	0	1.0	2.0	0	1
3	2	3	61	0	0	2	2	4	3	0.8	0.478	3	2	5.0		1	292	5	5	0	0	2.0	2.0	1	1
3	2	3	62	0	0	1	1	2	1	1.001	0.616	2	1	4.0		1	296	4	5	0	0	2.0	2.0	0	0
3	2	3	63	0	0	1	2	2	1	0.813	0.576	1	2	6.0		1	302	4	6	0	0	1.0	1.0	1	0
3	2	3	64	0	0	1	2	1	2	0.889	0.931	1	1	6.0		1	308	4	6	0	0	1.0	2.0	1	1
3	2	3	65	0	0	1	2	2	1	0.662	0.527	1	2	4.0		1	312	3	4	0	0	1.0	2.0	1	1
3	2	3	66	0	0	1	2	1	2	0.927	0.543	1	1	6.0		1	318	7	6	0	0	1.0	2.0	1	1
3	2	3	67	0	0	2	2	3	4	0.771	0.741	3	1	5.0		1	323	5	5	0	0	1.0	2.0	0	1
3	2	3	68	0	0	2	2	3	4	0.787	0.595	3	1	4.0		1	327	7	4	0	0	2.0	2.0	1	1
3	2	3	69	0	0	1	2	1	2	0.786	0.559	1	1	7.0		1	334	7	7	0	0	2.0	2.0	0	1
3	2	3	70	0	0	2	2	4	3	1.166	0.673	3	2	8.0		1	342	7	8	0	0	1.0	2.0	0	1
3	2	3	71	0	0	2	2	4	3	1.564	0.772	3	2	8.0		1	350	4	8	0	0	2.0	2.0	1	1
3	2	3	72	0	0	2	2	3	4	1.056	0.566	3	1	8.0		1	358	5	8	0	0	2.0	2.0	1	1
3	2	3	73	0	0	1	2	2	1	1.117	1.141	1	2	7.0		1	365	5	7	0	0	2.0	2.0	0	1
3	2	3	74	0	0	1	2	2	1	1.134	0.975	1	2	6.0		1	371	7	6	0	0	1.0	2.0	1	1
3	2	3	75	0	0	1	1	1	2	1.012	0.671	2	2	6.0		1	377	6	6	0	0	1.0	2.0	1	0
3	2	4	76	0	0	2	2	4	3	0.749	0.354	3	2	8.0		1	385	5	8	0	0	1.0	1.0	0	0
3	2	4	77	0	0	1	2	2	1	1.083	0.202	1	2	5.0		1	390	6	5	0	0	2.0	2.0	0	1
3	2	4	78	0	0	2	2	3	4	1.016	0.48	3	1	6.0		1	396	8	6	0	0	1.0	2.0	0	1
3	2	4	79	0	0	1	2	1	2	0.844	0.656	1	1	6.0		1	402	7	6	0	0	2.0	2.0	0	1
3	2	4	80	0	0	2	1	3	4	1.447	0.643	4	2	8.0		1	410	8	6	0	0	1.0	2.0	0	0
3	2	4	81	0	0	2	2	3	4	0.818	0.628	3	1	7.0		1	417	6	7	0	0	2.0	1.0	1	0
3	2	4	82	0	0	2	2	3	4	0.884	0.368	3	1	7.0		1	424	7	7	0	0	2.0	2.0	1	1
3	2	4	83	0	0	2	2	3	4	0.808	1.436	3	1	9.0		1	433	8	9	0	0	2.0	2.0	1	1
3	2	4	84	0	0	2	2	4	3	0.919	0.689	3	2	8.0		1	441	6	8	0	0	2.0	2.0	1	1
3	2	4	85	0	0	2	2	4	3	0.992	0.444	3	2	3.0		1	444	7	3	0	0	2.0	2.0	1	1
3	2	4	86	0	0	1	1	2	1	0.817	0.534	2	1	8.0		1	452	8	6	0	0	2.0	2.0	0	0
3	2	4	87	0	0	1	2	1	2	0.963	0.459	1	1	5.0		1	457	7	5	0	0	1.0	1.0	1	0
3	2	4	88	0	0	2	2	3	4	1.404	0.628	3	1	4.0		1	461	5	4	0	0	1.0	2.0	0	1
3	2	4	89	0	0	2	1	3	4	0.666	0.502	4	2	4.0		1	465	4	4	0	0	2.0	2.0	1	0
3	2	4	90	0	0	1	2	1	2	1.677	0.516	1	1	7.0		1	472	3	7	0	0	2.0	1.0	0	0
3	2	4	91	0	0	2	2	4	3	0.858	0.497	3	2	5.0		1	477	0	5	0	0	1.0	2.0	0	1
3	2	4	92	0	0	2	2	3	4	0.878	0.847	3	1	4.0		1	481	1	4	0	0	2.0	2.0	1	1
3	2	4	93	0	0	2	2	4	3	0.855	0.545	3	2	2.0		1	483	0	2	0	0	2.0	2.0	1	1
3	2	4	94	0	0	2	1	4	3	0.733	0.428	4	1	0.0		0	483	0	2	0	0	2.0	2.0	1	0
3	2	4	95	0	0	1	2	1	2	0.825	0.57	1	1	4.0		1	487	1	4	0	0	2.0	1.0	0	0
3	2	4	96	0	0	2	2	4	3	1.28	0.616	3	2	6.0		1	493	1	6	0	0	1.0	2.0	0	1
3	2	4	97	0	0	2	2	3	4	0.988	0.679	3	1	6.0		1	499	0	6	0	0	2.0	2.0	1	1
3	2	4	98	0	0	1	2	2	1	0.947	1.142	1	2	5.0		1	504	1	5	0	0	2.0	2.0	0	1
3	2	4	99	0	0	2	2	3	4	0.735	0.745	3	1	9.0		1	513	0	9	0	0	1.0	2.0	0	1
3	2	4	100	0	0	2	2	3	4	0.862	0.523	3	1	8.0		1	521	3	8	0	0	2.0	2.0	1	1
5	2	1	1	0	0	2	2	4	3	0.437	0.279	3	2	4.0		1	4	7	4	0	0	0.0	0.0	0	0
5	2	1	2	0	0	2	1	4	3	0.317	0.41	4	1	9.0		1	13	9	5	0	0	2.0	2.0	1	0
5	2	1	3	0	0	1	1	2	1	0.493	0.66	2	1	7.0		1	20	7	6	0	0	2.0	1.0	0	1
5	2	1	4	0	0	1	2	2	1	0.669	1.657	1	2	5.0		1	25	7	5	0	0	1.0	1.0	1	0
5	2	1	5	0	0	2	2	3	4	0.46	0.784	3	1	6.0		1	31	6	6	0	0	1.0	2.0	0	1
5	2	1	6	0	0	1	2	2	1	0.315	0.686	1	2	3.0		1	34	6	3	0	0	2.0	2.0	0	1
5	2	1	7	0	0	2	1	4	3	0.905	0.439	4	1	5.0		1	39	5	2	0	0	1.0	2.0	0	0
5	2	1	8	0	0	1	2	2	1	1.676	0.58	1	2	3.0		1	42	7	3	0	0	2.0	1.0	0	0
5	2	1	9	0	0	1	2	1	2	0.445	1.902	1	1	1.0		1	43	4	1	0	0	1.0	2.0	1	1
5	2	1	10	0	0	1	1	2	1	1.055	1.779	2	1	4.0		1	47	4	2	0	0	1.0	2.0	1	0
5	2	1	11	0	0	2	2	3	4	0.747	0.604	3	1	2.0		1	49	3	2	0	0	1.0	1.0	0	0
5	2	1	12	0	0	2	1	3	4	0.414	0.335	4	2	4.0		1	53	4	0	0	0	2.0	2.0	1	0
5	2	1	13	0	0	2	2	4	3	1.302	0.627	3	2	1.0		1	54	5	1	0	0	2.0	1.0	1	0
5	2	1	14	0	0	1	1	1	2	1.049	1.056	2	2	6.0		1	60	6	4	0	0	2.0	2.0	0	0
5	2	1	15	0	1	1	1	1	2	0.97	-1.0	2	2	0.0		0	60	1	0	0	1	1.0	1.0	1	1
5	2	1	16	1	0	1	0	1	2	-1.0	-1.0	-1	3	0.0		0	60	0	1	1	1	1.0	1.0	1	0
5	2	1	17	0	0	1	2	2	1	1.197	0.43	1	2	2.0		1	62	0	2	0	0	1.0	0.0	1	0
5	2	1	18	0	0	2	1	4	3	0.298	0.745	4	1	1.0		1	63	1	2	0	0	1.0	2.0	0	0
5	2	1	19	0	0	2	2	4	3	1.458	1.648	3	2	2.0		1	65	2	2	0	0	2.0	1.0	1	0
5	2	1	20	0	0	2	2	4	3	1.119	1.036	3	2	2.0		1	67	2	2	0	0	2.0	2.0	1	1
5	2	1	21	0	0	1	1	1	2	0.915	0.976	2	2	2.0		1	69	2	5	0	0	2.0	2.0	0	0
5	2	1	22	0	0	2	2	3	4	0.658	0.795	3	1	7.0		1	76	2	7	0	0	1.0	1.0	0	0
5	2	1	23	0	0	1	2	2	1	1.587	0.346	1	2	8.0		1	84	2	8	0	0	2.0	2.0	0	1
5	2	1	24	0	0	2	1	4	3	1.315	0.849	4	1	1.0		1	85	1	8	0	0	1.0	2.0	0	0
5	2	1	25	0	0	1	1	2	1	1.29	1.805	2	1	4.0		1	89	4	9	0	0	2.0	1.0	0	1
5	2	2	26	0	0	2	1	3	4	1.1	0.6	4	2	5.0		1	94	5	9	0	0	1.0	1.0	0	1
5	2	2	27	0	0	2	2	3	4	0.695	0.72	3	1	8.0		1	102	7	8	0	0	2.0	1.0	1	0
5	2	2	28	0	0	2	2	4	3	0.605	0.486	3	2	6.0		1	108	7	6	0	0	2.0	2.0	1	1
5	2	2	29	0	0	1	1	1	2	1.257	0.857	2	2	8.0		1	116	8	9	0	0	2.0	2.0	0	0
5	2	2	30	0	0	1	2	1	2	1.028	0.429	1	1	8.0		1	124	6	8	0	0	1.0	1.0	1	0
5	2	2	31	0	0	2	1	3	4	0.594	1.024	4	2	4.0		1	128	4	7	0	0	1.0	2.0	0	0
5	2	2	32	0	0	2	2	3	4	0.315	0.536	3	1	7.0		1	135	1	7	0	0	2.0	1.0	1	0
5	2	2	33	0	0	2	2	3	4	0.573	0.534	3	1	7.0		1	142	2	7	0	0	2.0	2.0	1	1
5	2	2	34	0	0	1	1	2	1	1.654	0.669	2	1	4.0		1	146	4	6	0	0	2.0	2.0	0	0
5	2	2	35	0	0	2	1	4	3	1.164	0.677	4	1	4.0		1	150	4	1	0	0	1.0	1.0	0	1
5	2	2	36	0	0	1	1	2	1	0.469	1.853	2	1	5.0		1	155	5	1	0	0	2.0	1.0	0	1
5	2	2	37	0	0	1	2	2	1	0.773	0.759	1	2	2.0		1	157	6	2	0	0	1.0	1.0	1	0
5	2	2	38	0	0	2	2	4	3	1.64	0.814	3	2	2.0		1	159	6	2	0	0	1.0	2.0	0	1
5	2	2	39	0	0	1	1	1	2	1.56	0.767	2	2	8.0		1	167	8	2	0	0	2.0	2.0	0	0
5	2	2	40	0	0	2	2	4	3	1.85	0.438	3	2	5.0		1	172	6	5	0	0	1.0	1.0	0	0
5	2	2	41	0	0	2	2	3	4	0.502	0.96	3	1	8.0		1	180	6	8	0	0	2.0	2.0	1	1
5	2	2	42	0	0	2	1	3	4	0.679	0.844	4	2	5.0		1	185	5	8	0	0	2.0	2.0	1	0
5	2	2	43	0	0	1	1	2	1	0.925	0.002	2	1	4.0		1	189	4	7	0	0	2.0	1.0	0	1
5	2	2	44	0	0	2	1	3	4	1.228	0.936	4	2	4.0		1	193	4	7	0	0	1.0	1.0	0	1
5	2	2	45	0	0	1	1	2	1	0.996	0.645	2	1	4.0		1	197	4	3	0	0	2.0	1.0	0	1
5	2	2	46	0	0	2	1	3	4	0.958	0.558	4	2	4.0		1	201	4	4	0	0	1.0	1.0	0	1
5	2	2	47	0	0	2	2	4	3	1.855	1.152	3	2	2.0		1	203	4	2	0	0	2.0	1.0	1	0
5	2	2	48	0	0	1	1	2	1	1.072	0.778	2	1	3.0		1	206	3	4	0	0	2.0	2.0	0	0
5	2	2	49	0	0	2	1	3	4	1.12	1.826	4	2	3.0		1	209	3	5	0	0	1.0	1.0	0	1
5	2	2	50	0	0	2	1	4	3	1.325	0.518	4	1	2.0		1	211	2	3	0	0	2.0	1.0	1	1
5	2	3	51	0	0	2	2	3	4	0.99	0.453	3	1	4.0		1	215	1	4	0	0	2.0	1.0	1	0
5	2	3	52	1	0	1	0	1	2	-1.0	-1.0	-1	3	0.0		0	215	4	2	1	1	2.0	2.0	0	0
5	2	3	53	0	0	1	2	1	2	0.648	1.547	1	1	4.0		1	219	5	4	0	0	1.0	0.0	1	0
5	2	3	54	0	0	2	1	4	3	1.307	0.296	4	1	4.0		1	223	4	1	0	0	1.0	2.0	0	0
5	2	3	55	0	0	2	1	3	4	1.417	0.374	4	2	2.0		1	225	2	2	0	0	2.0	1.0	1	1
5	2	3	56	0	0	2	1	4	3	1.886	1.567	4	1	1.0		1	226	1	2	0	0	2.0	1.0	1	1
5	2	3	57	0	0	1	1	2	1	1.606	0.417	2	1	1.0		1	227	1	0	0	0	2.0	1.0	0	1
5	2	3	58	0	0	2	1	3	4	1.287	0.723	4	2	2.0		1	229	2	4	0	0	1.0	1.0	0	1
5	2	3	59	0	0	1	1	1	2	1.197	1.651	2	2	6.0		1	235	6	1	0	0	2.0	1.0	0	1
5	2	3	60	0	0	1	2	1	2	0.833	0.301	1	1	2.0		1	237	7	2	0	0	1.0	1.0	1	0
5	2	3	61	0	0	1	2	1	2	0.588	0.429	1	1	1.0		1	238	8	1	0	0	1.0	2.0	1	1
5	2	3	62	0	0	2	2	4	3	0.807	0.45	3	2	4.0		1	242	9	4	0	0	1.0	2.0	0	1
5	2	3	63	0	0	2	1	3	4	1.158	0.49	4	2	9.0		1	251	9	4	0	0	2.0	2.0	1	0
5	2	3	64	0	0	1	1	1	2	1.81	0.76	2	2	6.0		1	257	6	7	0	0	2.0	1.0	0	1
5	2	3	65	0	0	1	2	2	1	1.021	0.511	1	2	7.0		1	264	5	7	0	0	1.0	1.0	1	0
5	2	3	66	0	0	1	2	2	1	0.12	1.447	1	2	4.0		1	268	9	4	0	0	1.0	2.0	1	1
5	2	3	67	0	0	2	2	4	3	0.141	0.479	3	2	3.0		1	271	3	3	0	0	1.0	2.0	0	1
5	2	3	68	0	0	1	2	1	2	1.292	0.875	1	1	2.0		1	273	1	2	0	0	2.0	2.0	0	1
5	2	3	69	0	0	2	1	3	4	1.005	0.695	4	2	1.0		1	274	1	1	0	0	1.0	2.0	0	0
5	2	3	70	0	0	1	1	2	1	1.146	0.389	2	1	1.0		1	275	1	2	0	0	2.0	1.0	0	1
5	2	3	71	0	0	2	1	3	4	1.337	0.746	4	2	1.0		1	276	1	4	0	0	1.0	1.0	0	1
5	2	3	72	0	0	2	2	4	3	0.754	0.805	3	2	4.0		1	280	2	4	0	0	2.0	1.0	1	0
5	2	3	73	0	0	2	1	4	3	0.003	0.938	4	1	3.0		1	283	3	3	0	0	2.0	2.0	1	0
5	2	3	74	0	0	2	1	3	4	0.433	0.606	4	2	3.0		1	286	3	2	0	0	2.0	1.0	1	1
5	2	3	75	0	0	2	1	4	3	1.034	0.629	4	1	2.0		1	288	2	4	0	0	2.0	1.0	1	1
5	2	4	76	0	0	1	2	2	1	0.823	0.811	1	2	4.0		1	292	0	4	0	0	2.0	1.0	0	0
5	2	4	77	0	0	1	2	2	1	0.002	0.557	1	2	6.0		1	298	2	6	0	0	1.0	2.0	1	1
5	2	4	78	0	0	2	1	4	3	0.695	1.262	4	1	2.0		1	300	2	4	0	0	1.0	2.0	0	0
5	2	4	79	0	0	1	2	2	1	1.658	1.471	1	2	5.0		1	305	5	5	0	0	2.0	1.0	0	0
5	2	4	80	0	0	2	1	3	4	0.709	0.781	4	2	2.0		1	307	2	5	0	0	1.0	2.0	0	0
5	2	4	81	0	0	2	1	3	4	0.817	0.619	4	2	2.0		1	309	2	7	0	0	2.0	1.0	1	1
5	2	4	82	0	0	2	1	4	3	1.264	0.642	4	1	2.0		1	311	2	8	0	0	2.0	1.0	1	1
5	2	4	83	0	0	2	2	4	3	0.923	0.577	3	2	8.0		1	319	2	8	0	0	2.0	1.0	1	0
5	2	4	84	0	0	1	1	2	1	1.503	0.56	2	1	3.0		1	322	3	5	0	0	2.0	2.0	0	0
5	2	4	85	0	0	2	2	3	4	0.96	0.632	3	1	6.0		1	328	3	6	0	0	1.0	1.0	0	0
5	2	4	86	0	0	2	2	3	4	1.041	1.536	3	1	4.0		1	332	2	4	0	0	2.0	2.0	1	1
5	2	4	87	0	0	2	1	3	4	0.503	0.794	4	2	5.0		1	337	5	8	0	0	2.0	2.0	1	0
5	2	4	88	0	0	1	2	1	2	0.66	0.688	1	1	7.0		1	344	6	7	0	0	2.0	1.0	0	0
5	2	4	89	0	0	2	2	3	4	1.367	1.246	3	1	9.0		1	353	4	9	0	0	1.0	2.0	0	1
5	2	4	90	0	0	2	2	4	3	1.443	0.934	3	2	6.0		1	359	5	6	0	0	2.0	2.0	1	1
5	2	4	91	0	0	2	1	4	3	1.118	0.602	4	1	8.0		1	367	8	8	0	0	2.0	2.0	1	0
5	2	4	92	0	0	2	1	4	3	0.953	1.309	4	1	8.0		1	375	8	7	0	0	2.0	1.0	1	1
5	2	4	93	0	0	2	2	3	4	1.382	0.787	3	1	4.0		1	379	7	4	0	0	2.0	1.0	1	0
5	2	4	94	0	0	2	1	3	4	0.001	0.78	4	2	5.0		1	384	5	0	0	0	2.0	2.0	1	0
5	2	4	95	0	0	2	2	3	4	1.132	0.555	3	1	1.0		1	385	5	1	0	0	2.0	1.0	1	0
5	2	4	96	0	0	1	1	2	1	0.001	0.908	2	1	4.0		1	389	4	3	0	0	2.0	2.0	0	0
5	2	4	97	0	0	1	2	2	1	1.748	0.708	1	2	3.0		1	392	1	3	0	0	1.0	1.0	1	0
5	2	4	98	0	0	2	2	3	4	0.715	0.87	3	1	3.0		1	395	1	3	0	0	1.0	2.0	0	1
5	2	4	99	0	0	1	2	1	2	0.163	1.283	1	1	4.0		1	399	1	4	0	0	2.0	2.0	0	1
5	2	4	100	0	0	1	1	2	1	0.77	0.64	2	1	0.0		0	399	0	4	0	0	1.0	2.0	1	0
6	2	1	1	0	0	2	2	4	3	1.067	0.456	3	2	3.0		1	3	8	3	0	0	0.0	0.0	0	0
6	2	1	2	0	0	2	2	3	4	1.183	0.786	3	1	1.0		1	4	8	1	0	0	2.0	2.0	1	1
6	2	1	3	0	0	2	2	4	3	0.405	0.606	3	2	1.0		1	5	8	1	0	0	2.0	2.0	1	1
6	2	1	4	0	0	2	1	3	4	0.712	0.814	4	2	6.0		1	11	6	1	0	0	2.0	2.0	1	0
6	2	1	5	0	0	2	1	4	3	0.491	0.486	4	1	5.0		1	16	5	0	0	0	2.0	1.0	1	1
6	2	1	6	0	0	1	2	1	2	0.356	0.465	1	1	1.0		1	17	7	1	0	0	2.0	1.0	0	0
6	2	1	7	0	0	2	1	4	3	0.803	0.478	4	1	7.0		1	24	7	0	0	0	1.0	2.0	0	0
6	2	1	8	0	0	2	1	3	4	0.876	1.097	4	2	8.0		1	32	8	1	0	0	2.0	1.0	1	1
6	2	1	9	0	0	2	1	3	4	0.65	1.325	4	2	9.0		1	41	9	0	0	0	2.0	1.0	1	1
6	2	1	10	0	0	2	1	4	3	0.718	0.718	4	1	7.0		1	48	7	2	0	0	2.0	1.0	1	1
6	2	1	11	0	0	1	1	1	2	0.722	1.134	2	2	6.0		1	54	6	5	0	0	2.0	1.0	0	1
6	2	1	12	0	0	1	1	1	2	0.783	0.996	2	2	6.0		1	60	6	6	0	0	1.0	1.0	1	1
6	2	1	13	0	0	2	1	4	3	0.723	0.922	4	1	6.0		1	66	6	2	0	0	1.0	1.0	0	1
6	2	1	14	0	0	2	1	4	3	1.128	0.33	4	1	8.0		1	74	8	9	0	0	2.0	1.0	1	1
6	2	1	15	0	0	2	1	3	4	0.501	0.297	4	2	9.0		1	83	9	8	0	0	2.0	1.0	1	1
6	2	1	16	0	0	2	1	4	3	0.697	0.514	4	1	7.0		1	90	7	9	0	0	2.0	1.0	1	1
6	2	1	17	0	0	2	1	3	4	0.963	0.701	4	2	7.0		1	97	7	9	0	0	2.0	1.0	1	1
6	2	1	18	0	0	1	1	1	2	0.917	0.45	2	2	8.0		1	105	8	9	0	0	2.0	1.0	0	1
6	2	1	19	1	0	2	0	4	3	-1.0	-1.0	-1	3	0.0		0	105	8	6	1	1	1.0	1.0	0	0
6	2	1	20	0	0	1	1	2	1	1.237	1.11	2	1	7.0		1	112	7	8	0	0	2.0	0.0	0	0
6	2	1	21	1	0	1	0	1	2	-1.0	-1.0	-1	3	0.0		0	112	8	9	1	1	1.0	1.0	1	0
6	2	1	22	0	0	1	1	1	2	1.104	0.337	2	2	8.0		1	120	8	9	0	0	1.0	0.0	1	0
6	2	1	23	0	0	2	1	4	3	0.733	0.711	4	1	9.0		1	129	9	9	0	0	1.0	1.0	0	1
6	2	1	24	0	0	1	1	2	1	0.768	0.612	2	1	6.0		1	135	6	6	0	0	2.0	1.0	0	1
6	2	1	25	0	0	2	1	3	4	0.817	0.98	4	2	6.0		1	141	6	2	0	0	1.0	1.0	0	1
6	2	2	26	0	0	2	1	4	3	0.844	0.447	4	1	7.0		1	148	7	2	0	0	2.0	1.0	1	1
6	2	2	27	0	0	1	1	1	2	0.747	0.568	2	2	5.0		1	153	5	4	0	0	2.0	1.0	0	1
6	2	2	28	0	0	2	1	4	3	0.499	0.634	4	1	6.0		1	159	6	2	0	0	1.0	1.0	0	1
6	2	2	29	0	0	1	1	2	1	1.617	0.796	2	1	8.0		1	167	8	1	0	0	2.0	1.0	0	1
6	2	2	30	0	0	1	1	2	1	0.576	0.436	2	1	6.0		1	173	6	1	0	0	1.0	1.0	1	1
6	2	2	31	0	0	2	1	4	3	0.849	0.509	4	1	6.0		1	179	6	2	0	0	1.0	1.0	0	1
6	2	2	32	0	0	2	1	4	3	0.909	0.629	4	1	5.0		1	184	5	0	0	0	2.0	1.0	1	1
6	2	2	33	0	0	2	1	4	3	0.834	0.9	4	1	4.0		1	188	4	2	0	0	2.0	1.0	1	1
6	2	2	34	0	0	1	1	1	2	0.884	0.618	2	2	6.0		1	194	6	2	0	0	2.0	1.0	0	1
6	2	2	35	0	0	2	1	4	3	1.112	1.841	4	1	4.0		1	198	4	0	0	0	1.0	1.0	0	1
6	2	2	36	0	0	2	1	4	3	0.665	0.695	4	1	2.0		1	200	2	2	0	0	2.0	1.0	1	1
6	2	2	37	0	0	1	2	2	1	1.982	0.86	1	2	6.0		1	206	0	6	0	0	2.0	1.0	0	0
6	2	2	38	0	0	2	2	3	4	1.149	1.217	3	1	9.0		1	215	2	9	0	0	1.0	2.0	0	1
6	2	2	39	0	0	1	2	2	1	1.563	0.995	1	2	7.0		1	222	0	7	0	0	2.0	2.0	0	1
6	2	2	40	1	0	1	0	2	1	-1.0	-1.0	-1	3	0.0		0	222	0	2	1	1	1.0	2.0	1	0
6	2	2	41	0	1	1	1	1	2	0.426	-1.0	2	2	0.0		0	222	1	2	0	1	1.0	0.0	1	0
6	2	2	42	0	0	1	2	1	2	0.702	0.38	1	1	3.0		1	225	0	3	0	0	1.0	1.0	1	0
6	2	2	43	0	0	1	1	2	1	0.538	0.469	2	1	2.0		1	227	2	5	0	0	1.0	2.0	1	0
6	2	2	44	0	0	2	1	4	3	1.197	0.549	4	1	2.0		1	229	2	6	0	0	1.0	1.0	0	1
6	2	2	45	0	0	1	2	1	2	0.685	0.378	1	1	7.0		1	236	3	7	0	0	2.0	1.0	0	0
6	2	2	46	0	0	1	2	1	2	0.439	0.42	1	1	9.0		1	245	3	9	0	0	1.0	2.0	1	1
6	2	2	47	0	0	2	2	3	4	0.502	0.616	3	1	7.0		1	252	2	7	0	0	1.0	2.0	0	1
6	2	2	48	0	0	1	2	1	2	0.415	1.151	1	1	8.0		1	260	0	8	0	0	2.0	2.0	0	1
6	2	2	49	0	0	1	2	1	2	0.57	0.48	1	1	6.0		1	266	4	6	0	0	1.0	2.0	1	1
6	2	2	50	0	0	2	2	3	4	1.653	0.402	3	1	5.0		1	271	6	5	0	0	1.0	2.0	0	1
6	2	3	51	0	0	2	2	4	3	0.964	0.547	3	2	5.0		1	276	4	5	0	0	2.0	2.0	1	1
6	2	3	52	0	0	1	2	2	1	1.041	0.722	1	2	3.0		1	279	2	3	0	0	2.0	2.0	0	1
6	2	3	53	0	0	2	2	3	4	1.045	0.489	3	1	3.0		1	282	1	3	0	0	1.0	2.0	0	1
6	2	3	54	0	0	1	1	2	1	0.476	0.464	2	1	0.0		0	282	0	3	0	0	2.0	2.0	0	0
6	2	3	55	0	0	2	2	4	3	0.814	0.674	3	2	5.0		1	287	4	5	0	0	1.0	1.0	0	0
6	2	3	56	0	0	1	2	2	1	0.656	1.02	1	2	5.0		1	292	7	5	0	0	2.0	2.0	0	1
6	2	3	57	0	0	2	2	3	4	0.622	0.431	3	1	9.0		1	301	7	9	0	0	1.0	2.0	0	1
6	2	3	58	0	0	2	2	3	4	0.834	0.564	3	1	7.0		1	308	7	7	0	0	2.0	2.0	1	1
6	2	3	59	0	0	1	2	1	2	0.584	0.437	1	1	5.0		1	313	6	5	0	0	2.0	2.0	0	1
6	2	3	60	0	0	2	1	4	3	0.653	0.944	4	1	3.0		1	316	3	4	0	0	1.0	2.0	0	0
6	2	3	61	0	0	2	1	4	3	0.863	0.536	4	1	5.0		1	321	5	7	0	0	2.0	1.0	1	1
6	2	3	62	0	0	1	1	2	1	0.885	0.001	2	1	4.0		1	325	4	7	0	0	2.0	1.0	0	1
6	2	3	63	0	0	2	1	3	4	0.795	0.459	4	2	0.0		0	325	0	8	0	0	1.0	1.0	0	1
6	2	3	64	0	0	1	2	1	2	0.8	0.989	1	1	7.0		1	332	1	7	0	0	2.0	1.0	0	0
6	2	3	65	0	0	1	2	1	2	0.762	0.364	1	1	8.0		1	340	1	8	0	0	1.0	2.0	1	1
6	2	3	66	0	0	2	1	4	3	0.419	1.497	4	1	3.0		1	343	3	9	0	0	1.0	2.0	0	0
6	2	3	67	0	0	1	2	2	1	0.404	0.631	1	2	8.0		1	351	4	8	0	0	2.0	1.0	0	0
6	2	3	68	0	0	1	2	2	1	0.866	0.679	1	2	7.0		1	358	2	7	0	0	1.0	2.0	1	1
6	2	3	69	0	0	1	2	2	1	0.717	0.822	1	2	4.0		1	362	1	4	0	0	1.0	2.0	1	1
6	2	3	70	0	0	1	2	2	1	0.622	0.549	1	2	5.0		1	367	2	5	0	0	1.0	2.0	1	1
6	2	3	71	0	0	1	1	1	2	0.617	0.512	2	2	1.0		1	368	1	9	0	0	1.0	2.0	1	0
6	2	3	72	0	0	1	1	2	1	0.867	1.013	2	1	0.0		0	368	0	6	0	0	1.0	1.0	1	1
6	2	3	73	0	0	1	2	2	1	0.738	0.734	1	2	6.0		1	374	0	6	0	0	1.0	1.0	1	0
6	2	3	74	0	0	2	2	3	4	1.336	0.61	3	1	7.0		1	381	3	7	0	0	1.0	2.0	0	1
6	2	3	75	0	0	2	2	4	3	1.001	0.593	3	2	7.0		1	388	2	7	0	0	2.0	2.0	1	1
6	2	4	76	0	0	2	2	4	3	0.958	0.5	3	2	7.0		1	395	1	7	0	0	2.0	2.0	1	1
6	2	4	77	0	0	1	1	2	1	0.441	0.557	2	1	2.0		1	397	2	6	0	0	2.0	2.0	0	0
6	2	4	78	0	0	2	1	3	4	0.697	0.479	4	2	5.0		1	402	5	8	0	0	1.0	1.0	0	1
6	2	4	79	0	0	2	1	4	3	0.431	0.828	4	1	5.0		1	407	5	7	0	0	2.0	1.0	1	1
6	2	4	80	0	0	2	1	3	4	0.925	0.523	4	2	7.0		1	414	7	8	0	0	2.0	1.0	1	1
6	2	4	81	0	0	1	1	1	2	1.242	0.66	2	2	9.0		1	423	9	8	0	0	2.0	1.0	0	1
6	2	4	82	0	0	1	1	1	2	0.789	0.715	2	2	6.0		1	429	6	6	0	0	1.0	1.0	1	1
6	2	4	83	0	0	2	1	3	4	0.748	1.083	4	2	6.0		1	435	6	9	0	0	1.0	1.0	0	1
6	2	4	84	0	1	1	1	2	1	0.779	-1.0	2	1	0.0		0	435	7	8	0	1	2.0	1.0	0	1
6	2	4	85	0	0	2	1	4	3	0.888	0.452	4	1	9.0		1	444	9	9	0	0	1.0	1.0	0	1
6	2	4	86	0	0	1	1	2	1	0.933	1.021	2	1	7.0		1	451	7	9	0	0	2.0	1.0	0	1
6	2	4	87	0	0	2	1	4	3	1.27	0.483	4	1	9.0		1	460	9	9	0	0	1.0	1.0	0	1
6	2	4	88	0	0	1	2	2	1	0.816	0.696	1	2	6.0		1	466	8	6	0	0	2.0	1.0	0	0
6	2	4	89	0	0	1	2	1	2	0.723	0.435	1	1	9.0		1	475	6	9	0	0	1.0	2.0	1	1
6	2	4	90	0	0	1	2	1	2	0.837	0.522	1	1	9.0		1	484	8	9	0	0	1.0	2.0	1	1
6	2	4	91	0	0	1	2	1	2	0.571	0.649	1	1	5.0		1	489	8	5	0	0	1.0	2.0	1	1
6	2	4	92	0	0	2	2	4	3	1.027	0.61	3	2	4.0		1	493	4	4	0	0	1.0	2.0	0	1
6	2	4	93	0	0	2	2	4	3	1.206	0.431	3	2	5.0		1	498	0	5	0	0	2.0	2.0	1	1
6	2	4	94	0	0	1	2	1	2	0.683	0.634	1	1	5.0		1	503	0	5	0	0	2.0	2.0	0	1
6	2	4	95	0	0	1	2	2	1	0.806	0.61	1	2	5.0		1	508	2	5	0	0	1.0	2.0	1	1
6	2	4	96	0	0	1	2	2	1	0.417	0.556	1	2	6.0		1	514	3	6	0	0	1.0	2.0	1	1
6	2	4	97	0	0	1	2	2	1	0.674	0.715	1	2	6.0		1	520	4	6	0	0	1.0	2.0	1	1
6	2	4	98	0	0	2	2	4	3	0.464	0.444	3	2	4.0		1	524	1	4	0	0	1.0	2.0	0	1
6	2	4	99	0	0	1	1	2	1	0.497	0.581	2	1	3.0		1	527	3	3	0	0	2.0	2.0	0	0
6	2	4	100	0	0	1	1	1	2	1.004	0.869	2	2	2.0		1	529	2	5	0	0	1.0	1.0	1	1
7	2	1	1	0	0	1	1	2	1	0.693	0.38	2	1	6.0		1	6	6	0	0	0	0.0	0.0	0	0
7	2	1	2	0	0	2	2	3	4	0.854	0.432	3	1	2.0		1	8	6	2	0	0	1.0	1.0	0	0
7	2	1	3	0	0	1	2	2	1	1.46	0.722	1	2	1.0		1	9	0	1	0	0	2.0	2.0	0	1
7	2	1	4	0	0	1	1	2	1	1.391	0.33	2	1	1.0		1	10	1	1	0	0	1.0	2.0	1	0
7	2	1	5	0	0	1	1	1	2	1.04	0.67	2	2	6.0		1	16	6	0	0	0	1.0	1.0	1	1
7	2	1	6	0	0	1	1	2	1	1.289	0.584	2	1	7.0		1	23	7	1	0	0	1.0	1.0	1	1
7	2	1	7	1	0	2	0	3	4	-1.0	-1.0	-1	3	0.0		0	23	8	0	1	1	1.0	1.0	0	0
7	2	1	8	0	0	1	1	2	1	0.624	0.912	2	1	7.0		1	30	7	3	0	0	2.0	0.0	0	0
7	2	1	9	0	0	2	2	4	3	0.934	0.435	3	2	4.0		1	34	6	4	0	0	1.0	1.0	0	0
7	2	1	10	0	0	2	1	3	4	1.058	0.502	4	2	3.0		1	37	3	3	0	0	2.0	2.0	1	0
7	2	1	11	0	0	2	1	3	4	1.146	0.328	4	2	3.0		1	40	3	6	0	0	2.0	1.0	1	1
7	2	1	12	0	0	2	2	4	3	1.624	0.641	3	2	6.0		1	46	5	6	0	0	2.0	1.0	1	0
7	2	1	13	0	0	2	2	4	3	1.444	1.352	3	2	5.0		1	51	5	5	0	0	2.0	2.0	1	1
7	2	1	14	0	0	2	2	4	3	1.834	0.47	3	2	3.0		1	54	3	3	0	0	2.0	2.0	1	1
7	2	1	15	0	0	1	1	2	1	1.426	0.623	2	1	6.0		1	60	6	3	0	0	2.0	2.0	0	0
7	2	1	16	0	0	1	1	1	2	1.129	0.604	2	2	5.0		1	65	5	1	0	0	1.0	1.0	1	1
7	2	1	17	0	0	2	2	4	3	1.343	0.55	3	2	0.0		0	65	6	0	0	0	1.0	1.0	0	0
7	2	1	18	0	0	2	1	4	3	0.998	0.775	4	1	8.0		1	73	8	2	0	0	2.0	2.0	1	0
7	2	1	19	0	0	2	1	4	3	1.443	0.703	4	1	6.0		1	79	6	2	0	0	2.0	1.0	1	1
7	2	1	20	0	0	1	1	2	1	1.335	0.452	2	1	6.0		1	85	6	1	0	0	2.0	1.0	0	1
7	2	1	21	0	0	1	1	2	1	0.844	0.388	2	1	5.0		1	90	5	1	0	0	1.0	1.0	1	1
7	2	1	22	0	0	1	2	1	2	1.25	0.358	1	1	2.0		1	92	5	2	0	0	1.0	1.0	1	0
7	2	1	23	0	0	1	1	1	2	0.893	0.467	2	2	1.0		1	93	1	0	0	0	1.0	2.0	1	0
7	2	1	24	0	0	1	2	2	1	1.196	0.706	1	2	4.0		1	97	2	4	0	0	1.0	1.0	1	0
7	2	1	25	0	0	2	2	3	4	1.348	0.466	3	1	6.0		1	103	1	6	0	0	1.0	2.0	0	1
7	2	2	26	0	0	1	1	2	1	0.864	0.763	2	1	1.0		1	104	1	8	0	0	2.0	2.0	0	0
7	2	2	27	0	0	2	1	3	4	1.316	0.591	4	2	1.0		1	105	1	6	0	0	1.0	1.0	0	1
7	2	2	28	0	0	2	2	3	4	0.586	0.32	3	1	8.0		1	113	3	8	0	0	2.0	1.0	1	0
7	2	2	29	0	0	2	2	3	4	1.36	0.634	3	1	9.0		1	122	4	9	0	0	2.0	2.0	1	1
7	2	2	30	0	0	2	2	3	4	1.076	1.466	3	1	8.0		1	130	3	8	0	0	2.0	2.0	1	1
7	2	2	31	0	0	1	2	1	2	1.849	0.779	1	1	8.0		1	138	2	8	0	0	2.0	2.0	0	1
7	2	2	32	0	0	1	2	2	1	1.163	0.718	1	2	9.0		1	147	1	9	0	0	1.0	2.0	1	1
7	2	2	33	0	0	1	2	1	2	1.897	0.819	1	1	8.0		1	155	4	8	0	0	1.0	2.0	1	1
7	2	2	34	0	0	1	2	2	1	1.955	0.498	1	2	4.0		1	159	4	4	0	0	1.0	2.0	1	1
7	2	2	35	0	0	1	1	1	2	0.797	0.479	2	2	3.0		1	162	3	4	0	0	1.0	2.0	1	0
7	2	2	36	0	0	2	1	3	4	1.344	1.071	4	2	3.0		1	165	3	3	0	0	1.0	1.0	0	1
7	2	2	37	0	0	2	1	4	3	1.077	0.707	4	1	6.0		1	171	6	1	0	0	2.0	1.0	1	1
7	2	2	38	0	0	1	1	2	1	1.545	0.741	2	1	9.0		1	180	9	2	0	0	2.0	1.0	0	1
7	2	2	39	1	0	2	0	3	4	-1.0	-1.0	-1	3	0.0		0	180	8	0	1	1	1.0	1.0	0	0
7	2	2	40	0	0	2	1	3	4	0.764	0.307	4	2	6.0		1	186	6	3	0	0	2.0	0.0	1	0
7	2	2	41	0	0	1	1	1	2	1.467	0.798	2	2	3.0		1	189	3	2	0	0	2.0	1.0	0	1
7	2	2	42	0	0	2	2	3	4	0.967	0.34	3	1	8.0		1	197	4	8	0	0	1.0	1.0	0	0
7	2	2	43	0	0	1	1	2	1	1.265	0.729	2	1	5.0		1	202	5	8	0	0	2.0	2.0	0	0
7	2	2	44	0	0	2	2	3	4	1.82	0.356	3	1	8.0		1	210	7	8	0	0	1.0	1.0	0	0
7	2	2	45	0	0	1	1	1	2	1.214	0.606	2	2	8.0		1	218	8	8	0	0	2.0	2.0	0	0
7	2	2	46	0	0	2	1	3	4	1.714	1.024	4	2	7.0		1	225	7	8	0	0	1.0	1.0	0	1
7	2	2	47	0	0	2	1	4	3	1.744	0.89	4	1	9.0		1	234	9	8	0	0	2.0	1.0	1	1
7	2	2	48	0	0	1	1	1	2	1.6	0.806	2	2	8.0		1	242	8	9	0	0	2.0	1.0	0	1
7	2	2	49	0	0	2	2	4	3	1.253	0.655	3	2	8.0		1	250	7	8	0	0	1.0	1.0	0	0
7	2	2	50	0	0	1	2	2	1	0.91	0.352	1	2	9.0		1	259	8	9	0	0	2.0	2.0	0	1
7	2	3	51	0	0	1	1	1	2	0.795	0.623	2	2	9.0		1	268	9	6	0	0	1.0	2.0	1	0
7	2	3	52	0	0	2	2	4	3	0.905	1.003	3	2	3.0		1	271	8	3	0	0	1.0	1.0	0	0
7	2	3	53	0	0	1	1	2	1	1.171	0.606	2	1	8.0		1	279	8	3	0	0	2.0	2.0	0	0
7	2	3	54	0	0	2	1	3	4	1.146	0.962	4	2	5.0		1	284	5	2	0	0	1.0	1.0	0	1
7	2	3	55	0	0	2	1	4	3	1.06	1.008	4	1	5.0		1	289	5	3	0	0	2.0	1.0	1	1
7	2	3	56	0	0	1	1	2	1	0.831	0.976	2	1	5.0		1	294	5	0	0	0	2.0	1.0	0	1
7	2	3	57	0	0	2	2	3	4	1.625	0.429	3	1	2.0		1	296	3	2	0	0	1.0	1.0	0	0
7	2	3	58	0	0	1	1	1	2	1.086	0.697	2	2	0.0		0	296	0	1	0	0	2.0	2.0	0	0
7	2	3	59	0	0	1	2	1	2	1.141	0.368	1	1	0.0		0	296	0	0	0	0	1.0	1.0	1	0
7	2	3	60	0	0	1	2	2	1	1.294	0.293	1	2	1.0		1	297	2	1	0	0	1.0	2.0	1	1
7	2	3	61	0	0	1	2	2	1	0.868	0.375	1	2	1.0		1	298	3	1	0	0	1.0	2.0	1	1
7	2	3	62	0	0	2	2	3	4	1.062	0.362	3	1	2.0		1	300	1	2	0	0	1.0	2.0	0	1
7	2	3	63	0	0	2	1	3	4	0.746	0.884	4	2	1.0		1	301	1	6	0	0	2.0	2.0	1	0
7	2	3	64	0	0	1	2	1	2	0.734	0.821	1	1	5.0		1	306	4	5	0	0	2.0	1.0	0	0
7	2	3	65	0	0	1	2	1	2	1.273	0.484	1	1	5.0		1	311	2	5	0	0	1.0	2.0	1	1
7	2	3	66	0	0	2	1	4	3	1.041	0.898	4	1	5.0		1	316	5	7	0	0	1.0	2.0	0	0
7	2	3	67	0	0	1	2	2	1	1.668	0.609	1	2	9.0		1	325	4	9	0	0	2.0	1.0	0	0
7	2	3	68	0	0	1	1	2	1	1.234	0.749	2	1	5.0		1	330	5	8	0	0	1.0	2.0	1	0
7	2	3	69	0	0	1	1	1	2	0.834	0.712	2	2	9.0		1	339	9	2	0	0	1.0	1.0	1	1
7	2	3	70	0	0	2	2	3	4	0.904	0.668	3	1	5.0		1	344	8	5	0	0	1.0	1.0	0	0
7	2	3	71	1	0	1	0	2	1	-1.0	-1.0	-1	3	0.0		0	344	8	5	1	1	2.0	2.0	0	0
7	2	3	72	0	0	2	2	3	4	0.449	0.309	3	1	9.0		1	353	9	9	0	0	1.0	0.0	0	0
7	2	3	73	0	0	2	2	3	4	1.184	0.285	3	1	8.0		1	361	7	8	0	0	2.0	2.0	1	1
7	2	3	74	0	0	1	2	2	1	0.709	0.376	1	2	7.0		1	368	7	7	0	0	2.0	2.0	0	1
7	2	3	75	1	0	1	0	1	2	-1.0	-1.0	-1	3	0.0		0	368	7	8	1	1	1.0	2.0	1	0
7	2	4	76	0	0	2	1	3	4	1.043	0.849	4	2	7.0		1	375	7	8	0	0	1.0	0.0	0	0
7	2	4	77	0	0	1	1	1	2	0.574	0.359	2	2	5.0		1	380	5	5	0	0	2.0	1.0	0	1
7	2	4	78	0	0	2	1	3	4	1.032	0.789	4	2	6.0		1	386	6	3	0	0	1.0	1.0	0	1
7	2	4	79	0	0	1	2	2	1	1.267	0.864	1	2	2.0		1	388	7	2	0	0	2.0	1.0	0	0
7	2	4	80	0	0	2	1	4	3	1.262	0.792	4	1	5.0		1	393	5	4	0	0	1.0	2.0	0	0
7	2	4	81	1	0	2	0	3	4	-1.0	-1.0	-1	3	0.0		0	393	4	3	1	1	2.0	1.0	1	0
7	2	4	82	0	0	1	2	2	1	0.357	0.754	1	2	4.0		1	397	6	4	0	0	2.0	0.0	0	0
7	2	4	83	0	0	1	1	2	1	0.451	0.554	2	1	6.0		1	403	6	4	0	0	1.0	2.0	1	0
7	2	4	84	0	0	1	2	2	1	0.393	0.808	1	2	3.0		1	406	6	3	0	0	1.0	1.0	1	0
7	2	4	85	0	0	2	1	3	4	0.984	0.469	4	2	5.0		1	411	5	1	0	0	1.0	2.0	0	0
7	2	4	86	0	0	2	1	3	4	0.329	0.793	4	2	6.0		1	417	6	1	0	0	2.0	1.0	1	1
7	2	4	87	0	0	2	1	4	3	0.59	0.788	4	1	6.0		1	423	6	0	0	0	2.0	1.0	1	1
7	2	4	88	0	0	1	1	2	1	1.256	1.27	2	1	9.0		1	432	9	6	0	0	2.0	1.0	0	1
7	2	4	89	0	0	1	1	1	2	1.038	0.77	2	2	6.0		1	438	6	5	0	0	1.0	1.0	1	1
7	2	4	90	0	0	2	2	3	4	0.884	0.787	3	1	6.0		1	444	9	6	0	0	1.0	1.0	0	0
7	2	4	91	0	0	1	1	1	2	0.656	0.876	2	2	6.0		1	450	6	5	0	0	2.0	2.0	0	0
7	2	4	92	0	0	2	2	3	4	1.98	0.496	3	1	6.0		1	456	8	6	0	0	1.0	1.0	0	0
7	2	4	93	0	0	2	2	4	3	0.265	1.097	3	2	6.0		1	462	9	6	0	0	2.0	2.0	1	1
7	2	4	94	0	0	2	1	4	3	1.185	0.553	4	1	8.0		1	470	8	5	0	0	2.0	2.0	1	0
7	2	4	95	1	0	1	0	2	1	-1.0	-1.0	-1	3	0.0		0	470	7	2	1	1	2.0	1.0	0	0
7	2	4	96	0	0	2	1	4	3	0.624	0.579	4	1	8.0		1	478	8	3	0	0	1.0	0.0	0	0
7	2	4	97	0	0	1	1	1	2	1.18	0.701	2	2	9.0		1	487	9	5	0	0	2.0	1.0	0	1
7	2	4	98	0	0	1	2	2	1	1.23	0.397	1	2	4.0		1	491	7	4	0	0	1.0	1.0	1	0
7	2	4	99	0	0	2	2	4	3	1.383	0.927	3	2	4.0		1	495	7	4	0	0	1.0	2.0	0	1
7	2	4	100	0	0	2	2	4	3	0.436	0.435	3	2	3.0		1	498	7	3	0	0	2.0	2.0	1	1
9	2	1	1	0	0	1	2	2	1	1.131	1.088	1	2	3.0		1	3	7	3	0	0	0.0	0.0	0	0
9	2	1	2	0	0	1	2	2	1	0.766	0.649	1	2	2.0		1	5	7	2	0	0	1.0	2.0	1	1
9	2	1	3	0	0	1	2	2	1	0.601	0.503	1	2	0.0		0	5	5	0	0	0	1.0	2.0	1	1
9	2	1	4	0	0	2	1	3	4	0.911	0.639	4	2	3.0		1	8	3	0	0	0	1.0	2.0	0	0
9	2	1	5	0	0	2	2	4	3	0.873	0.263	3	2	4.0		1	12	2	4	0	0	2.0	1.0	1	0
9	2	1	6	0	0	2	2	3	4	0.898	0.963	3	1	1.0		1	13	0	1	0	0	2.0	2.0	1	1
9	2	1	7	0	0	1	1	2	1	1.241	0.438	2	1	0.0		0	13	0	1	0	0	2.0	2.0	0	0
9	2	1	8	0	0	1	2	2	1	0.535	0.624	1	2	2.0		1	15	3	2	0	0	1.0	1.0	1	0
9	2	1	9	0	0	2	2	4	3	1.754	0.539	3	2	1.0		1	16	1	1	0	0	1.0	2.0	0	1
9	2	1	10	0	0	2	2	4	3	0.855	0.637	3	2	0.0		0	16	1	0	0	0	2.0	2.0	1	1
9	2	1	11	0	0	2	1	4	3	0.381	0.704	4	1	1.0		1	17	1	1	0	0	2.0	2.0	1	0
9	2	1	12	0	0	2	1	4	3	0.685	0.55	4	1	3.0		1	20	3	3	0	0	2.0	1.0	1	1
9	2	1	13	0	0	1	1	2	1	1.275	0.36	2	1	2.0		1	22	2	1	0	0	2.0	1.0	0	1
9	2	1	14	0	0	1	1	1	2	0.552	0.453	2	2	5.0		1	27	5	1	0	0	1.0	1.0	1	1
9	2	1	15	0	0	2	2	4	3	1.008	0.42	3	2	1.0		1	28	3	1	0	0	1.0	1.0	0	0
9	2	1	16	0	0	2	2	3	4	0.75	0.568	3	1	0.0		0	28	3	0	0	0	2.0	2.0	1	1
9	2	1	17	0	0	1	2	2	1	1.307	0.483	1	2	3.0		1	31	4	3	0	0	2.0	2.0	0	1
9	2	1	18	0	0	2	1	3	4	1.286	0.653	4	2	8.0		1	39	8	2	0	0	1.0	2.0	0	0
9	2	1	19	0	1	1	2	2	1	1.738	-1.0	1	2	0.0		0	39	9	5	0	1	2.0	1.0	0	0
9	2	1	20	0	0	2	2	3	4	1.142	0.263	3	1	5.0		1	44	6	5	0	0	1.0	2.0	0	1
9	2	1	21	0	0	1	2	2	1	0.758	0.372	1	2	5.0		1	49	8	5	0	0	2.0	2.0	0	1
9	2	1	22	0	0	2	2	3	4	1.086	0.395	3	1	4.0		1	53	6	4	0	0	1.0	2.0	0	1
9	2	1	23	0	0	1	1	1	2	0.741	1.439	2	2	8.0		1	61	8	5	0	0	2.0	2.0	0	0
9	2	1	24	0	0	1	2	1	2	0.558	0.429	1	1	9.0		1	70	8	9	0	0	1.0	1.0	1	0
9	2	1	25	0	0	2	2	4	3	0.711	0.387	3	2	8.0		1	78	7	8	0	0	1.0	2.0	0	1
9	2	2	26	0	0	2	1	3	4	0.645	0.031	4	2	8.0		1	86	8	6	0	0	2.0	2.0	1	0
9	2	2	27	0	0	1	1	2	1	0.049	0.358	2	1	8.0		1	94	8	3	0	0	2.0	1.0	0	1
9	2	2	28	0	0	1	1	1	2	0.528	0.272	2	2	6.0		1	100	6	5	0	0	1.0	1.0	1	1
9	2	2	29	0	0	1	2	1	2	0.581	0.769	1	1	5.0		1	105	6	5	0	0	1.0	1.0	1	0
9	2	2	30	0	0	1	1	1	2	0.527	0.32	2	2	8.0		1	113	8	2	0	0	1.0	2.0	1	0
9	2	2	31	0	0	1	2	2	1	1.331	0.419	1	2	1.0		1	114	7	1	0	0	1.0	1.0	1	0
9	2	2	32	0	0	1	2	2	1	1.048	0.357	1	2	0.0		0	114	8	0	0	0	1.0	2.0	1	1
9	2	2	33	0	0	2	2	3	4	0.432	0.285	3	1	1.0		1	115	3	1	0	0	1.0	2.0	0	1
9	2	2	34	0	0	1	1	1	2	0.501	0.368	2	2	4.0		1	119	4	4	0	0	2.0	2.0	0	0
9	2	2	35	0	0	2	1	4	3	1.125	0.36	4	1	4.0		1	123	4	0	0	0	1.0	1.0	0	1
9	2	2	36	0	0	1	2	1	2	0.909	0.367	1	1	0.0		0	123	2	0	0	0	2.0	1.0	0	0
9	2	2	37	0	0	1	1	1	2	0.582	0.479	2	2	0.0		0	123	0	1	0	0	1.0	2.0	1	0
9	2	2	38	0	0	2	1	3	4	0.955	0.396	4	2	1.0		1	124	1	3	0	0	1.0	1.0	0	1
9	2	2	39	0	0	1	2	1	2	0.491	1.05	1	1	3.0		1	127	1	3	0	0	2.0	1.0	0	0
9	2	2	40	0	0	2	2	4	3	0.706	0.506	3	2	2.0		1	129	2	2	0	0	1.0	2.0	0	1
9	2	2	41	0	0	1	1	2	1	0.746	0.436	2	1	0.0		0	129	0	1	0	0	2.0	2.0	0	0
9	2	2	42	0	0	1	1	1	2	0.495	0.439	2	2	1.0		1	130	1	3	0	0	1.0	1.0	1	1
9	2	2	43	0	0	1	1	2	1	0.845	0.39	2	1	1.0		1	131	1	3	0	0	1.0	1.0	1	1
9	2	2	44	0	0	1	2	2	1	0.605	1.237	1	2	6.0		1	137	0	6	0	0	1.0	1.0	1	0
9	2	2	45	0	0	2	1	3	4	1.162	0.013	4	2	2.0		1	139	2	9	0	0	1.0	2.0	0	0
9	2	2	46	0	0	1	2	2	1	1.37	0.389	1	2	8.0		1	147	0	8	0	0	2.0	1.0	0	0
9	2	2	47	0	0	1	1	2	1	1.785	0.507	2	1	3.0		1	150	3	7	0	0	1.0	2.0	1	0
9	2	2	48	0	0	2	2	4	3	0.53	0.466	3	2	5.0		1	155	2	5	0	0	1.0	1.0	0	0
9	2	2	49	0	0	2	1	3	4	0.908	0.41	4	2	4.0		1	159	4	5	0	0	2.0	2.0	1	0
9	2	2	50	0	0	1	2	2	1	0.46	0.391	1	2	4.0		1	163	5	4	0	0	2.0	1.0	0	0
9	2	3	51	0	0	2	2	4	3	0.774	0.341	3	2	2.0		1	165	7	2	0	0	1.0	2.0	0	1
9	2	3	52	0	0	1	1	2	1	0.919	0.35	2	1	5.0		1	170	5	3	0	0	2.0	2.0	0	0
9	2	3	53	0	0	1	2	2	1	0.532	0.29	1	2	4.0		1	174	4	4	0	0	1.0	1.0	1	0
9	2	3	54	0	0	2	2	3	4	0.413	0.408	3	1	7.0		1	181	6	7	0	0	1.0	2.0	0	1
9	2	3	55	0	0	2	2	4	3	0.5	0.349	3	2	9.0		1	190	9	9	0	0	2.0	2.0	1	1
9	2	3	56	0	0	1	2	1	2	0.361	0.308	1	1	7.0		1	197	8	7	0	0	2.0	2.0	0	1
9	2	3	57	0	0	2	1	4	3	0.787	0.405	4	1	9.0		1	206	9	8	0	0	1.0	2.0	0	0
9	2	3	58	0	0	2	2	4	3	0.42	0.487	3	2	7.0		1	213	7	7	0	0	2.0	1.0	1	0
9	2	3	59	0	0	2	2	3	4	0.387	0.502	3	1	9.0		1	222	8	9	0	0	2.0	2.0	1	1
9	2	3	60	0	0	2	1	3	4	0.572	0.5	4	2	8.0		1	230	8	8	0	0	2.0	2.0	1	0
9	2	3	61	0	0	1	2	1	2	0.555	0.578	1	1	8.0		1	238	4	8	0	0	2.0	1.0	0	0
9	2	3	62	0	0	2	1	3	4	0.481	0.357	4	2	4.0		1	242	4	5	0	0	1.0	2.0	0	0
9	2	3	63	0	0	1	2	2	1	1.018	1.425	1	2	7.0		1	249	3	7	0	0	2.0	1.0	0	0
9	2	3	64	0	0	2	2	4	3	0.991	0.291	3	2	9.0		1	258	0	9	0	0	1.0	2.0	0	1
9	2	3	65	0	0	2	2	4	3	0.668	0.605	3	2	8.0		1	266	0	8	0	0	2.0	2.0	1	1
9	2	3	66	0	0	2	1	4	3	0.39	0.353	4	1	0.0		0	266	0	7	0	0	2.0	2.0	1	0
9	2	3	67	0	0	2	2	4	3	0.473	0.421	3	2	5.0		1	271	1	5	0	0	2.0	1.0	1	0
9	2	3	68	0	0	1	2	1	2	0.731	0.432	1	1	5.0		1	276	3	5	0	0	2.0	2.0	0	1
9	2	3	69	0	0	2	2	4	3	0.552	0.354	3	2	4.0		1	280	3	4	0	0	1.0	2.0	0	1
9	2	3	70	0	0	2	2	4	3	0.882	0.304	3	2	6.0		1	286	4	6	0	0	2.0	2.0	1	1
9	2	3	71	0	0	1	2	1	2	0.697	0.286	1	1	3.0		1	289	6	3	0	0	2.0	2.0	0	1
9	2	3	72	0	0	2	1	3	4	1.836	0.332	4	2	8.0		1	297	8	3	0	0	1.0	2.0	0	0
9	2	3	73	0	0	1	1	2	1	0.92	0.353	2	1	8.0		1	305	8	1	0	0	2.0	1.0	0	1
9	2	3	74	0	0	1	2	2	1	0.578	0.575	1	2	1.0		1	306	7	1	0	0	1.0	1.0	1	0
9	2	3	75	1	0	1	0	2	1	-1.0	-1.0	-1	3	0.0		0	306	8	4	1	1	1.0	2.0	1	0
9	2	4	76	0	0	2	1	4	3	0.731	0.354	4	1	6.0		1	312	6	3	0	0	1.0	0.0	0	0
9	2	4	77	0	0	1	2	2	1	0.432	0.476	1	2	3.0		1	315	8	3	0	0	2.0	1.0	0	0
9	2	4	78	0	0	1	2	1	2	1.171	0.478	1	1	4.0		1	319	8	4	0	0	1.0	2.0	1	1
9	2	4	79	0	0	2	2	3	4	1.319	0.309	3	1	6.0		1	325	8	6	0	0	1.0	2.0	0	1
9	2	4	80	0	0	1	1	2	1	0.801	0.357	2	1	7.0		1	332	7	9	0	0	2.0	2.0	0	0
9	2	4	81	0	0	2	1	3	4	0.551	0.337	4	2	8.0		1	340	8	9	0	0	1.0	1.0	0	1
9	2	4	82	0	0	1	1	2	1	0.599	0.34	2	1	8.0		1	348	8	5	0	0	2.0	1.0	0	1
9	2	4	83	0	0	1	1	1	2	0.593	0.279	2	2	7.0		1	355	7	8	0	0	1.0	1.0	1	1
9	2	4	84	0	0	1	2	1	2	0.784	0.855	1	1	6.0		1	361	6	6	0	0	1.0	1.0	1	0
9	2	4	85	0	0	2	2	4	3	0.853	0.311	3	2	8.0		1	369	9	8	0	0	1.0	2.0	0	1
9	2	4	86	0	0	2	2	3	4	0.751	0.324	3	1	6.0		1	375	8	6	0	0	2.0	2.0	1	1
9	2	4	87	0	0	2	2	4	3	0.861	0.419	3	2	4.0		1	379	8	4	0	0	2.0	2.0	1	1
9	2	4	88	0	0	2	1	4	3	0.65	0.002	4	1	8.0		1	387	8	3	0	0	2.0	2.0	1	0
9	2	4	89	0	0	1	2	1	2	0.556	0.141	1	1	3.0		1	390	9	3	0	0	2.0	1.0	0	0
9	2	4	90	0	0	1	1	1	2	0.481	0.346	2	2	7.0		1	397	7	3	0	0	1.0	2.0	1	0
9	2	4	91	0	0	1	2	1	2	0.875	0.451	1	1	3.0		1	400	5	3	0	0	1.0	1.0	1	0
9	2	4	92	0	0	1	2	2	1	0.516	0.284	1	2	2.0		1	402	7	2	0	0	1.0	2.0	1	1
9	2	4	93	0	0	1	1	2	1	0.708	0.302	2	1	8.0		1	410	8	3	0	0	1.0	2.0	1	0
9	2	4	94	0	0	1	1	2	1	0.593	0.474	2	1	6.0		1	416	6	3	0	0	1.0	1.0	1	1
9	2	4	95	0	0	2	1	4	3	1.539	0.434	4	1	7.0		1	423	7	4	0	0	1.0	1.0	0	1
9	2	4	96	0	0	2	2	4	3	0.66	0.28	3	2	5.0		1	428	7	5	0	0	2.0	1.0	1	0
9	2	4	97	0	0	1	1	2	1	0.407	0.001	2	1	7.0		1	435	7	4	0	0	2.0	2.0	0	0
9	2	4	98	0	0	1	2	2	1	0.653	0.089	1	2	8.0		1	443	8	8	0	0	1.0	1.0	1	0
9	2	4	99	0	0	2	1	4	3	0.408	0.017	4	1	8.0		1	451	8	9	0	0	1.0	2.0	0	0
9	2	4	100	0	0	1	1	1	2	0.334	0.001	2	2	7.0		1	458	7	8	0	0	2.0	1.0	0	1
11	2	1	1	0	0	2	1	3	4	0.539	0.372	4	2	7.0		1	7	7	4	0	0	0.0	0.0	0	0
11	2	1	2	0	0	1	1	2	1	1.112	0.413	2	1	7.0		1	14	7	3	0	0	2.0	1.0	0	1
11	2	1	3	0	0	1	1	1	2	0.57	0.445	2	2	6.0		1	20	6	2	0	0	1.0	1.0	1	1
11	2	1	4	0	0	2	1	3	4	0.722	0.485	4	2	7.0		1	27	7	2	0	0	1.0	1.0	0	1
11	2	1	5	0	0	1	1	2	1	0.746	0.522	2	1	6.0		1	33	6	1	0	0	2.0	1.0	0	1
11	2	1	6	0	0	1	1	1	2	0.531	0.772	2	2	3.0		1	36	3	2	0	0	1.0	1.0	1	1
11	2	1	7	0	0	1	2	1	2	0.682	0.403	1	1	2.0		1	38	4	2	0	0	1.0	1.0	1	0
11	2	1	8	0	0	2	1	4	3	1.051	0.368	4	1	5.0		1	43	5	0	0	0	1.0	2.0	0	0
11	2	1	9	0	0	2	1	4	3	0.713	0.459	4	1	5.0		1	48	5	0	0	0	2.0	1.0	1	1
11	2	1	10	0	0	1	1	2	1	0.864	0.559	2	1	5.0		1	53	5	3	0	0	2.0	1.0	0	1
11	2	1	11	0	0	2	1	3	4	0.882	0.577	4	2	4.0		1	57	4	6	0	0	1.0	1.0	0	1
11	2	1	12	0	0	2	2	4	3	0.778	0.505	3	2	4.0		1	61	0	4	0	0	2.0	1.0	1	0
11	2	1	13	0	0	2	2	4	3	0.842	0.414	3	2	6.0		1	67	0	6	0	0	2.0	2.0	1	1
11	2	1	14	0	0	2	2	3	4	1.122	0.683	3	1	6.0		1	73	2	6	0	0	2.0	2.0	1	1
11	2	1	15	0	0	2	2	3	4	0.615	0.328	3	1	8.0		1	81	2	8	0	0	2.0	2.0	1	1
11	2	1	16	0	0	1	2	1	2	1.228	0.506	1	1	8.0		1	89	3	8	0	0	2.0	2.0	0	1
11	2	1	17	0	0	1	2	2	1	0.952	0.5	1	2	5.0		1	94	3	5	0	0	1.0	2.0	1	1
11	2	1	18	0	0	1	2	2	1	0.699	0.525	1	2	6.0		1	100	7	6	0	0	1.0	2.0	1	1
11	2	1	19	0	0	1	2	1	2	0.889	0.561	1	1	8.0		1	108	5	8	0	0	1.0	2.0	1	1
11	2	1	20	0	0	1	2	2	1	0.481	0.365	1	2	8.0		1	116	5	8	0	0	1.0	2.0	1	1
11	2	1	21	0	0	1	2	2	1	0.51	0.331	1	2	7.0		1	123	4	7	0	0	1.0	2.0	1	1
11	2	1	22	0	0	1	2	2	1	0.847	0.39	1	2	8.0		1	131	6	8	0	0	1.0	2.0	1	1
11	2	1	23	0	0	2	2	3	4	1.276	0.399	3	1	7.0		1	138	7	7	0	0	1.0	2.0	0	1
11	2	1	24	0	0	2	2	3	4	0.611	0.497	3	1	8.0		1	146	7	8	0	0	2.0	2.0	1	1
11	2	1	25	0	0	2	2	3	4	0.844	0.404	3	1	8.0		1	154	7	8	0	0	2.0	2.0	1	1
11	2	2	26	0	0	1	2	1	2	0.848	0.506	1	1	7.0		1	161	5	7	0	0	2.0	2.0	0	1
11	2	2	27	0	0	2	2	3	4	0.774	0.337	3	1	9.0		1	170	5	9	0	0	1.0	2.0	0	1
11	2	2	28	0	0	1	2	1	2	0.52	0.37	1	1	8.0		1	178	7	8	0	0	2.0	2.0	0	1
11	2	2	29	0	0	2	2	3	4	0.644	0.727	3	1	9.0		1	187	9	9	0	0	1.0	2.0	0	1
11	2	2	30	0	0	2	2	4	3	0.864	0.564	3	2	8.0		1	195	7	8	0	0	2.0	2.0	1	1
11	2	2	31	0	0	1	2	1	2	0.948	0.449	1	1	5.0		1	200	5	5	0	0	2.0	2.0	0	1
11	2	2	32	0	0	1	2	1	2	0.752	0.55	1	1	3.0		1	203	6	3	0	0	1.0	2.0	1	1
11	2	2	33	0	0	1	1	1	2	0.833	0.5	2	2	7.0		1	210	7	4	0	0	1.0	2.0	1	0
11	2	2	34	0	0	2	1	4	3	0.65	0.648	4	1	7.0		1	217	7	1	0	0	1.0	1.0	0	1
11	2	2	35	0	0	1	1	2	1	0.624	0.456	2	1	4.0		1	221	4	1	0	0	2.0	1.0	0	1
11	2	2	36	0	0	1	2	2	1	0.876	0.301	1	2	1.0		1	222	3	1	0	0	1.0	1.0	1	0
11	2	2	37	0	0	1	1	2	1	0.586	0.298	2	1	5.0		1	227	5	1	0	0	1.0	2.0	1	0
11	2	2	38	0	0	1	1	2	1	1.025	0.624	2	1	5.0		1	232	5	7	0	0	1.0	1.0	1	1
11	2	2	39	0	0	1	1	2	1	0.898	0.621	2	1	7.0		1	239	7	9	0	0	1.0	1.0	1	1
11	2	2	40	0	0	2	1	3	4	0.723	0.861	4	2	8.0		1	247	8	9	0	0	1.0	1.0	0	1
11	2	2	41	0	0	1	1	2	1	0.837	0.526	2	1	8.0		1	255	8	6	0	0	2.0	1.0	0	1
11	2	2	42	0	0	1	1	2	1	0.55	0.89	2	1	8.0		1	263	8	6	0	0	1.0	1.0	1	1
11	2	2	43	0	0	1	1	1	2	0.837	0.573	2	2	9.0		1	272	9	5	0	0	1.0	1.0	1	1
11	2	2	44	0	0	1	1	2	1	0.651	0.566	2	1	6.0		1	278	6	5	0	0	1.0	1.0	1	1
11	2	2	45	0	0	2	1	3	4	1.398	0.38	4	2	7.0		1	285	7	4	0	0	1.0	1.0	0	1
11	2	2	46	0	0	1	1	2	1	1.189	0.284	2	1	6.0		1	291	6	5	0	0	2.0	1.0	0	1
11	2	2	47	0	0	1	1	2	1	0.685	0.555	2	1	8.0		1	299	8	6	0	0	1.0	1.0	1	1
11	2	2	48	0	0	2	1	3	4	0.99	0.314	4	2	8.0		1	307	8	6	0	0	1.0	1.0	0	1
11	2	2	49	0	0	2	1	4	3	0.983	0.341	4	1	5.0		1	312	5	4	0	0	2.0	1.0	1	1
11	2	2	50	0	0	2	1	4	3	0.837	0.785	4	1	6.0		1	318	6	2	0	0	2.0	1.0	1	1
11	2	3	51	0	0	2	1	4	3	0.612	0.378	4	1	5.0		1	323	5	3	0	0	2.0	1.0	1	1
11	2	3	52	0	0	2	1	3	4	0.76	0.435	4	2	3.0		1	326	3	5	0	0	2.0	1.0	1	1
11	2	3	53	0	0	2	2	4	3	0.899	0.52	3	2	5.0		1	331	5	5	0	0	2.0	1.0	1	0
11	2	3	54	0	0	2	2	3	4	0.776	0.388	3	1	2.0		1	333	3	2	0	0	2.0	2.0	1	1
11	2	3	55	0	0	1	1	1	2	1.5	0.357	2	2	2.0		1	335	2	3	0	0	2.0	2.0	0	0
11	2	3	56	0	0	2	2	3	4	0.589	0.294	3	1	2.0		1	337	3	2	0	0	1.0	1.0	0	0
11	2	3	57	0	0	2	2	4	3	0.719	0.407	3	2	3.0		1	340	2	3	0	0	2.0	2.0	1	1
11	2	3	58	0	0	2	2	3	4	0.688	1.047	3	1	3.0		1	343	2	3	0	0	2.0	2.0	1	1
11	2	3	59	0	0	1	1	2	1	1.301	0.389	2	1	0.0		0	343	0	1	0	0	2.0	2.0	0	0
11	2	3	60	0	0	2	2	3	4	1.153	0.354	3	1	1.0		1	344	1	1	0	0	1.0	1.0	0	0
11	2	3	61	0	0	2	2	4	3	1.078	0.371	3	2	1.0		1	345	2	1	0	0	2.0	2.0	1	1
11	2	3	62	0	0	1	1	2	1	1.305	0.361	2	1	4.0		1	349	4	2	0	0	2.0	2.0	0	0
11	2	3	63	0	0	2	1	3	4	0.959	0.507	4	2	4.0		1	353	4	3	0	0	1.0	1.0	0	1
11	2	3	64	0	0	1	1	2	1	1.161	0.723	2	1	1.0		1	354	1	4	0	0	2.0	1.0	0	1
11	2	3	65	0	0	2	2	4	3	0.693	0.665	3	2	3.0		1	357	1	3	0	0	1.0	1.0	0	0
11	2	3	66	0	0	1	2	1	2	0.681	0.545	1	1	2.0		1	359	2	2	0	0	2.0	2.0	0	1
11	2	3	67	0	0	2	1	3	4	0.816	0.274	4	2	1.0		1	360	1	4	0	0	1.0	2.0	0	0
11	2	3	68	0	0	1	2	1	2	1.342	0.51	1	1	4.0		1	364	2	4	0	0	2.0	1.0	0	0
11	2	3	69	0	0	1	2	1	2	0.798	0.302	1	1	5.0		1	369	2	5	0	0	1.0	2.0	1	1
11	2	3	70	0	0	2	2	3	4	1.039	0.435	3	1	7.0		1	376	5	7	0	0	1.0	2.0	0	1
11	2	3	71	0	0	2	2	4	3	0.679	0.457	3	2	8.0		1	384	8	8	0	0	2.0	2.0	1	1
11	2	3	72	0	0	2	2	4	3	1.052	0.815	3	2	8.0		1	392	6	8	0	0	2.0	2.0	1	1
11	2	3	73	0	0	1	2	2	1	1.053	0.579	1	2	9.0		1	401	4	9	0	0	2.0	2.0	0	1
11	2	3	74	0	0	2	2	3	4	1.096	0.607	3	1	9.0		1	410	4	9	0	0	1.0	2.0	0	1
11	2	3	75	0	0	1	2	2	1	1.466	0.349	1	2	6.0		1	416	4	6	0	0	2.0	2.0	0	1
11	2	4	76	0	0	2	2	4	3	0.848	0.264	3	2	4.0		1	420	5	4	0	0	1.0	2.0	0	1
11	2	4	77	0	0	1	1	1	2	0.881	0.269	2	2	7.0		1	427	7	2	0	0	2.0	2.0	0	0
11	2	4	78	0	0	1	1	2	1	0.722	0.48	2	1	8.0		1	435	8	1	0	0	1.0	1.0	1	1
11	2	4	79	0	0	1	1	1	2	0.725	0.529	2	2	8.0		1	443	8	1	0	0	1.0	1.0	1	1
11	2	4	80	0	0	1	1	2	1	0.792	0.621	2	1	8.0		1	451	8	3	0	0	1.0	1.0	1	1
11	2	4	81	0	0	1	1	2	1	0.693	0.329	2	1	7.0		1	458	7	4	0	0	1.0	1.0	1	1
11	2	4	82	0	0	2	1	4	3	0.76	0.44	4	1	9.0		1	467	9	2	0	0	1.0	1.0	0	1
11	2	4	83	0	0	1	1	2	1	0.641	0.529	2	1	9.0		1	476	9	1	0	0	2.0	1.0	0	1
11	2	4	84	0	0	2	1	3	4	0.648	0.319	4	2	6.0		1	482	6	1	0	0	1.0	1.0	0	1
11	2	4	85	0	0	1	1	1	2	0.707	0.407	2	2	4.0		1	486	4	2	0	0	2.0	1.0	0	1
11	2	4	86	0	0	2	2	3	4	0.65	0.281	3	1	3.0		1	489	4	3	0	0	1.0	1.0	0	0
11	2	4	87	0	0	1	1	2	1	0.634	0.25	2	1	3.0		1	492	3	3	0	0	2.0	2.0	0	0
11	2	4	88	0	0	1	2	1	2	1.041	0.299	1	1	3.0		1	495	3	3	0	0	1.0	1.0	1	0
11	2	4	89	0	0	2	2	3	4	0.746	0.328	3	1	0.0		0	495	3	0	0	0	1.0	2.0	0	1
11	2	4	90	0	0	2	1	4	3	0.913	0.488	4	1	1.0		1	496	1	3	0	0	2.0	2.0	1	0
11	2	4	91	0	0	1	1	2	1	0.512	0.328	2	1	1.0		1	497	1	3	0	0	2.0	1.0	0	1
11	2	4	92	0	0	2	1	4	3	0.751	0.353	4	1	3.0		1	500	3	3	0	0	1.0	1.0	0	1
11	2	4	93	0	0	1	1	2	1	1.032	0.399	2	1	4.0		1	504	4	0	0	0	2.0	1.0	0	1
11	2	4	94	0	0	1	1	1	2	1.068	0.513	2	2	3.0		1	507	3	1	0	0	1.0	1.0	1	1
11	2	4	95	0	0	1	1	2	1	0.861	0.486	2	1	4.0		1	511	4	3	0	0	1.0	1.0	1	1
11	2	4	96	0	0	1	1	1	2	1.096	0.404	2	2	5.0		1	516	5	1	0	0	1.0	1.0	1	1
11	2	4	97	0	0	2	1	3	4	0.868	0.462	4	2	3.0		1	519	3	1	0	0	1.0	1.0	0	1
11	2	4	98	0	0	2	1	4	3	0.805	0.329	4	1	1.0		1	520	1	6	0	0	2.0	1.0	1	1
11	2	4	99	0	0	1	2	2	1	0.83	0.525	1	2	7.0		1	527	4	7	0	0	2.0	1.0	0	0
11	2	4	100	0	0	2	2	3	4	0.749	0.594	3	1	9.0		1	536	7	9	0	0	1.0	2.0	0	1
17	2	1	1	0	0	1	1	2	1	1.023	0.497	2	1	7.0		1	7	7	4	0	0	0.0	0.0	0	0
17	2	1	2	0	0	1	2	1	2	0.865	0.578	1	1	6.0		1	13	5	6	0	0	1.0	1.0	1	0
17	2	1	3	0	0	1	1	2	1	0.453	0.68	2	1	3.0		1	16	3	6	0	0	1.0	2.0	1	0
17	2	1	4	0	0	1	1	2	1	0.821	0.74	2	1	5.0		1	21	5	6	0	0	1.0	1.0	1	1
17	2	1	5	0	0	2	1	3	4	0.825	0.563	4	2	7.0		1	28	7	6	0	0	1.0	1.0	0	1
17	2	1	6	0	0	1	1	2	1	0.359	0.667	2	1	8.0		1	36	8	6	0	0	2.0	1.0	0	1
17	2	1	7	0	0	2	2	3	4	0.306	0.397	3	1	5.0		1	41	9	5	0	0	1.0	1.0	0	0
17	2	1	8	0	0	2	2	3	4	0.598	0.829	3	1	5.0		1	46	7	5	0	0	2.0	2.0	1	1
17	2	1	9	0	0	1	2	2	1	0.374	0.696	1	2	8.0		1	54	7	8	0	0	2.0	2.0	0	1
17	2	1	10	0	0	2	1	4	3	0.539	0.613	4	1	6.0		1	60	6	8	0	0	1.0	2.0	0	0
17	2	1	11	0	0	2	2	4	3	0.483	0.574	3	2	6.0		1	66	9	6	0	0	2.0	1.0	1	0
17	2	1	12	0	0	2	1	4	3	0.307	0.651	4	1	7.0		1	73	7	8	0	0	2.0	2.0	1	0
17	2	1	13	0	0	1	1	1	2	0.304	0.757	2	2	6.0		1	79	6	8	0	0	2.0	1.0	0	1
17	2	1	14	0	0	1	1	2	1	0.651	0.504	2	1	6.0		1	85	6	4	0	0	1.0	1.0	1	1
17	2	1	15	0	0	2	1	3	4	1.067	0.692	4	2	5.0		1	90	5	3	0	0	1.0	1.0	0	1
17	2	1	16	0	0	2	2	3	4	0.324	0.397	3	1	5.0		1	95	3	5	0	0	2.0	1.0	1	0
17	2	1	17	0	0	2	2	3	4	0.498	0.456	3	1	7.0		1	102	1	7	0	0	2.0	2.0	1	1
17	2	1	18	0	0	2	2	3	4	1.266	0.77	3	1	8.0		1	110	2	8	0	0	2.0	2.0	1	1
17	2	1	19	0	0	1	2	2	1	0.933	0.711	1	2	4.0		1	114	1	4	0	0	2.0	2.0	0	1
17	2	1	20	0	0	1	1	2	1	1.0	0.464	2	1	1.0		1	115	1	3	0	0	1.0	2.0	1	0
17	2	1	21	0	0	2	1	3	4	0.632	0.458	4	2	3.0		1	118	3	3	0	0	1.0	1.0	0	1
17	2	1	22	0	0	1	2	1	2	0.436	0.473	1	1	5.0		1	123	1	5	0	0	2.0	1.0	0	0
17	2	1	23	0	0	1	2	2	1	0.415	0.466	1	2	4.0		1	127	3	4	0	0	1.0	2.0	1	1
17	2	1	24	0	0	1	2	1	2	0.594	0.689	1	1	7.0		1	134	3	7	0	0	1.0	2.0	1	1
17	2	1	25	0	0	2	1	3	4	0.434	0.611	4	2	1.0		1	135	1	8	0	0	1.0	2.0	0	0
17	2	2	26	0	0	2	2	3	4	1.026	0.554	3	1	7.0		1	142	1	7	0	0	2.0	1.0	1	0
17	2	2	27	0	0	1	1	1	2	0.958	0.679	2	2	1.0		1	143	1	7	0	0	2.0	2.0	0	0
17	2	2	28	0	0	2	1	4	3	0.522	0.672	4	1	2.0		1	145	2	7	0	0	1.0	1.0	0	1
17	2	2	29	0	0	2	2	3	4	1.062	0.679	3	1	4.0		1	149	6	4	0	0	2.0	1.0	1	0
17	2	2	30	0	0	2	2	4	3	0.899	0.876	3	2	7.0		1	156	8	7	0	0	2.0	2.0	1	1
17	2	2	31	0	0	1	2	1	2	0.86	0.522	1	1	7.0		1	163	8	7	0	0	2.0	2.0	0	1
17	2	2	32	0	0	1	1	2	1	0.841	0.486	2	1	5.0		1	168	5	8	0	0	1.0	2.0	1	0
17	2	2	33	0	0	2	1	4	3	1.042	0.582	4	1	3.0		1	171	3	8	0	0	1.0	1.0	0	1
17	2	2	34	0	0	1	2	1	2	0.516	0.781	1	1	5.0		1	176	2	5	0	0	2.0	1.0	0	0
17	2	2	35	0	0	2	2	4	3	1.898	1.053	3	2	7.0		1	183	6	7	0	0	1.0	2.0	0	1
17	2	2	36	0	0	2	2	4	3	1.089	1.787	3	2	8.0		1	191	2	8	0	0	2.0	2.0	1	1
17	2	2	37	0	0	2	2	3	4	0.952	0.564	3	1	8.0		1	199	2	8	0	0	2.0	2.0	1	1
17	2	2	38	0	0	1	1	1	2	0.746	0.614	2	2	1.0		1	200	1	9	0	0	2.0	2.0	0	0
17	2	2	39	0	0	1	2	2	1	1.049	0.887	1	2	7.0		1	207	3	7	0	0	1.0	1.0	1	0
17	2	2	40	0	0	1	1	1	2	1.8	0.705	2	2	3.0		1	210	3	3	0	0	1.0	2.0	1	0
17	2	2	41	0	0	2	2	3	4	1.593	0.822	3	1	3.0		1	213	1	3	0	0	1.0	1.0	0	0
17	2	2	42	0	0	2	1	3	4	1.162	1.982	4	2	1.0		1	214	1	4	0	0	2.0	2.0	1	0
17	2	2	43	0	0	2	1	3	4	1.534	0.745	4	2	1.0		1	215	1	5	0	0	2.0	1.0	1	1
17	2	2	44	0	0	1	2	1	2	0.578	0.946	1	1	3.0		1	218	2	3	0	0	2.0	1.0	0	0
17	2	2	45	0	0	1	2	1	2	0.651	0.586	1	1	2.0		1	220	1	2	0	0	1.0	2.0	1	1
17	2	2	46	0	0	2	2	3	4	1.015	0.704	3	1	1.0		1	221	1	1	0	0	1.0	2.0	0	1
17	2	2	47	0	0	2	1	3	4	0.816	0.711	4	2	3.0		1	224	3	3	0	0	2.0	2.0	1	0
17	2	2	48	0	0	1	1	1	2	0.45	0.822	2	2	4.0		1	228	4	3	0	0	2.0	1.0	0	1
17	2	2	49	0	0	1	1	2	1	0.82	1.077	2	1	3.0		1	231	3	7	0	0	1.0	1.0	1	1
17	2	2	50	0	0	1	2	1	2	1.749	0.651	1	1	5.0		1	236	8	5	0	0	1.0	1.0	1	0
17	2	3	51	0	0	2	1	4	3	0.889	0.647	4	1	9.0		1	245	9	5	0	0	1.0	2.0	0	0
17	2	3	52	0	0	1	2	2	1	0.832	0.63	1	2	4.0		1	249	7	4	0	0	2.0	1.0	0	0
17	2	3	53	0	0	1	2	2	1	1.262	1.062	1	2	7.0		1	256	7	7	0	0	1.0	2.0	1	1
17	2	3	54	0	0	1	1	1	2	1.206	0.68	2	2	7.0		1	263	7	6	0	0	1.0	2.0	1	0
17	2	3	55	0	0	2	1	3	4	1.027	0.594	4	2	4.0		1	267	4	7	0	0	1.0	1.0	0	1
17	2	3	56	0	0	1	2	1	2	0.769	0.981	1	1	6.0		1	273	5	6	0	0	2.0	1.0	0	0
17	2	3	57	0	0	2	1	3	4	0.806	0.352	4	2	8.0		1	281	8	5	0	0	1.0	2.0	0	0
17	2	3	58	0	0	1	1	2	1	0.338	0.413	2	1	8.0		1	289	8	6	0	0	2.0	1.0	0	1
17	2	3	59	0	0	1	1	1	2	0.982	0.6	2	2	6.0		1	295	6	6	0	0	1.0	1.0	1	1
17	2	3	60	0	0	1	2	2	1	0.644	0.465	1	2	7.0		1	302	6	7	0	0	1.0	1.0	1	0
17	2	3	61	0	0	1	1	1	2	1.742	0.424	2	2	7.0		1	309	7	7	0	0	1.0	2.0	1	0
17	2	3	62	0	0	2	2	3	4	0.322	0.621	3	1	8.0		1	317	7	8	0	0	1.0	1.0	0	0
17	2	3	63	0	0	2	2	3	4	0.785	0.619	3	1	5.0		1	322	6	5	0	0	2.0	2.0	1	1
17	2	3	64	0	0	1	1	1	2	0.295	0.41	2	2	8.0		1	330	8	5	0	0	2.0	2.0	0	0
17	2	3	65	0	0	1	1	1	2	1.443	0.392	2	2	7.0		1	337	7	8	0	0	1.0	1.0	1	1
17	2	3	66	0	0	1	2	1	2	0.27	0.389	1	1	7.0		1	344	7	7	0	0	1.0	1.0	1	0
17	2	3	67	0	0	1	2	2	1	0.536	0.443	1	2	7.0		1	351	8	7	0	0	1.0	2.0	1	1
17	2	3	68	0	0	2	2	3	4	1.723	0.482	3	1	8.0		1	359	7	8	0	0	1.0	2.0	0	1
17	2	3	69	0	0	2	2	3	4	0.682	0.727	3	1	5.0		1	364	5	5	0	0	2.0	2.0	1	1
17	2	3	70	0	0	1	1	1	2	0.443	0.796	2	2	9.0		1	373	9	3	0	0	2.0	2.0	0	0
17	2	3	71	0	0	1	1	1	2	0.901	0.754	2	2	8.0		1	381	8	1	0	0	1.0	1.0	1	1
17	2	3	72	0	0	1	1	1	2	0.55	0.33	2	2	9.0		1	390	9	6	0	0	1.0	1.0	1	1
17	2	3	73	0	0	2	1	4	3	1.399	0.453	4	1	6.0		1	396	6	3	0	0	1.0	1.0	0	1
17	2	3	74	0	0	1	2	2	1	0.382	0.552	1	2	5.0		1	401	5	5	0	0	2.0	1.0	0	0
17	2	3	75	0	0	1	1	2	1	1.068	0.405	2	1	5.0		1	406	5	7	0	0	1.0	2.0	1	0
17	2	4	76	0	0	2	2	3	4	0.864	0.437	3	1	5.0		1	411	8	5	0	0	1.0	1.0	0	0
17	2	4	77	0	0	1	1	1	2	0.268	0.323	2	2	6.0		1	417	6	4	0	0	2.0	2.0	0	0
17	2	4	78	0	0	2	2	3	4	0.282	0.64	3	1	3.0		1	420	7	3	0	0	1.0	1.0	0	0
17	2	4	79	0	0	2	1	3	4	0.933	0.38	4	2	7.0		1	427	7	4	0	0	2.0	2.0	1	0
17	2	4	80	0	0	2	1	4	3	0.337	0.719	4	1	8.0		1	435	8	4	0	0	2.0	1.0	1	1
17	2	4	81	0	0	1	1	1	2	0.446	0.968	2	2	9.0		1	444	9	0	0	0	2.0	1.0	0	1
17	2	4	82	1	0	1	0	1	2	-1.0	-1.0	-1	3	0.0		0	444	9	2	1	1	1.0	1.0	1	0
17	2	4	83	0	0	1	2	2	1	0.504	0.395	1	2	2.0		1	446	8	2	0	0	1.0	0.0	1	0
17	2	4	84	0	0	1	2	2	1	0.375	0.599	1	2	5.0		1	451	6	5	0	0	1.0	2.0	1	1
17	2	4	85	0	0	2	1	4	3	0.366	0.368	4	1	7.0		1	458	7	6	0	0	1.0	2.0	0	0
17	2	4	86	0	0	2	2	3	4	0.352	0.495	3	1	6.0		1	464	6	6	0	0	2.0	1.0	1	0
17	2	4	87	0	0	2	1	3	4	0.261	0.953	4	2	3.0		1	467	3	4	0	0	2.0	2.0	1	0
17	2	4	88	0	0	1	2	2	1	1.066	0.559	1	2	3.0		1	470	3	3	0	0	2.0	1.0	0	0
17	2	4	89	0	1	2	1	3	4	0.723	-1.0	4	2	0.0		0	470	1	1	0	1	1.0	2.0	0	0
17	2	4	90	0	0	2	1	3	4	0.69	0.461	4	2	1.0		1	471	1	2	0	0	2.0	1.0	1	1
17	2	4	91	0	0	1	1	2	1	0.381	0.708	2	1	1.0		1	472	1	3	0	0	2.0	1.0	0	1
17	2	4	92	0	0	2	2	3	4	0.932	0.759	3	1	6.0		1	478	1	6	0	0	1.0	1.0	0	0
17	2	4	93	0	0	1	2	2	1	0.918	0.546	1	2	5.0		1	483	1	5	0	0	2.0	2.0	0	1
17	2	4	94	0	0	1	2	1	2	0.961	0.443	1	1	5.0		1	488	0	5	0	0	1.0	2.0	1	1
17	2	4	95	0	0	1	1	1	2	1.055	0.646	2	2	0.0		0	488	0	3	0	0	1.0	2.0	1	0
17	2	4	96	0	0	2	2	4	3	1.191	0.822	3	2	4.0		1	492	0	4	0	0	1.0	1.0	0	0
17	2	4	97	0	0	1	2	1	2	1.019	0.753	1	1	3.0		1	495	2	3	0	0	2.0	2.0	0	1
17	2	4	98	0	0	2	2	3	4	1.069	0.573	3	1	7.0		1	502	4	7	0	0	1.0	2.0	0	1
17	2	4	99	0	0	2	2	4	3	0.955	1.984	3	2	8.0		1	510	3	8	0	0	2.0	2.0	1	1
17	2	4	100	0	0	1	1	1	2	1.507	0.962	2	2	1.0		1	511	1	8	0	0	2.0	2.0	0	0
18	2	1	1	0	0	2	1	3	4	0.692	0.487	4	2	5.0		1	5	5	1	0	0	0.0	0.0	0	0
18	2	1	2	0	0	2	1	4	3	0.544	0.685	4	1	5.0		1	10	5	3	0	0	2.0	1.0	1	1
18	2	1	3	0	0	1	1	1	2	0.872	0.694	2	2	5.0		1	15	5	8	0	0	2.0	1.0	0	1
18	2	1	4	0	0	1	2	1	2	1.57	0.918	1	1	7.0		1	22	6	7	0	0	1.0	1.0	1	0
18	2	1	5	0	0	1	2	1	2	0.745	0.66	1	1	6.0		1	28	7	6	0	0	1.0	2.0	1	1
18	2	1	6	0	0	1	2	1	2	0.507	0.662	1	1	4.0		1	32	6	4	0	0	1.0	2.0	1	1
18	2	1	7	0	0	1	1	1	2	0.619	1.556	2	2	5.0		1	37	5	2	0	0	1.0	2.0	1	0
18	2	1	8	0	0	2	1	3	4	1.606	0.559	4	2	5.0		1	42	5	3	0	0	1.0	1.0	0	1
18	2	1	9	0	0	1	1	2	1	0.495	0.625	2	1	6.0		1	48	6	7	0	0	2.0	1.0	0	1
18	2	1	10	0	0	2	2	4	3	1.385	0.546	3	2	3.0		1	51	6	3	0	0	1.0	1.0	0	0
18	2	1	11	0	0	2	1	4	3	1.763	0.662	4	1	7.0		1	58	7	3	0	0	2.0	2.0	1	0
18	2	1	12	0	0	2	1	4	3	1.164	0.769	4	1	5.0		1	63	5	2	0	0	2.0	1.0	1	1
18	2	1	13	0	0	1	1	2	1	0.971	0.856	2	1	8.0		1	71	8	1	0	0	2.0	1.0	0	1
18	2	1	14	0	0	2	1	3	4	1.221	0.724	4	2	7.0		1	78	7	3	0	0	1.0	1.0	0	1
18	2	1	15	0	0	1	1	1	2	0.742	1.318	2	2	4.0		1	82	4	5	0	0	2.0	1.0	0	1
18	2	1	16	0	0	1	2	1	2	0.543	0.41	1	1	6.0		1	88	8	6	0	0	1.0	1.0	1	0
18	2	1	17	0	0	1	1	1	2	0.949	1.491	2	2	6.0		1	94	6	7	0	0	1.0	2.0	1	0
18	2	1	18	0	0	1	1	2	1	1.236	0.597	2	1	8.0		1	102	8	7	0	0	1.0	1.0	1	1
18	2	1	19	0	0	2	1	3	4	0.787	0.453	4	2	8.0		1	110	8	8	0	0	1.0	1.0	0	1
18	2	1	20	0	0	1	1	1	2	0.771	0.479	2	2	9.0		1	119	9	8	0	0	2.0	1.0	0	1
18	2	1	21	0	0	1	1	2	1	0.713	0.601	2	1	8.0		1	127	8	5	0	0	1.0	1.0	1	1
18	2	1	22	0	0	2	2	4	3	1.018	0.694	3	2	6.0		1	133	6	6	0	0	1.0	1.0	0	0
18	2	1	23	0	0	2	1	4	3	1.056	0.509	4	1	5.0		1	138	5	8	0	0	2.0	2.0	1	0
18	2	1	24	0	0	1	1	2	1	0.851	0.717	2	1	1.0		1	139	1	9	0	0	2.0	1.0	0	1
18	2	1	25	0	0	1	2	2	1	0.468	0.94	1	2	6.0		1	145	2	6	0	0	1.0	1.0	1	0
18	2	2	26	0	0	1	1	2	1	0.677	0.495	2	1	2.0		1	147	2	6	0	0	1.0	2.0	1	0
18	2	2	27	0	0	2	2	4	3	0.889	0.445	3	2	3.0		1	150	2	3	0	0	1.0	1.0	0	0
18	2	2	28	0	0	1	1	1	2	0.866	0.422	2	2	7.0		1	157	7	7	0	0	2.0	2.0	0	0
18	2	2	29	0	0	1	1	1	2	0.831	0.906	2	2	9.0		1	166	9	9	0	0	1.0	1.0	1	1
18	2	2	30	0	0	1	1	1	2	0.852	0.647	2	2	8.0		1	174	8	8	0	0	1.0	1.0	1	1
18	2	2	31	0	0	1	1	2	1	0.945	1.134	2	1	5.0		1	179	5	7	0	0	1.0	1.0	1	1
18	2	2	32	0	0	2	1	4	3	0.9	0.604	4	1	3.0		1	182	3	6	0	0	1.0	1.0	0	1
18	2	2	33	0	0	2	2	4	3	0.808	0.932	3	2	6.0		1	188	4	6	0	0	2.0	1.0	1	0
18	2	2	34	0	0	1	1	2	1	1.787	1.023	2	1	6.0		1	194	6	6	0	0	2.0	2.0	0	0
18	2	2	35	0	0	2	1	4	3	0.859	0.507	4	1	5.0		1	199	5	7	0	0	1.0	1.0	0	1
18	2	2	36	0	0	1	1	2	1	0.715	0.555	2	1	2.0		1	201	2	9	0	0	2.0	1.0	0	1
18	2	2	37	0	0	2	2	4	3	0.711	0.61	3	2	8.0		1	209	1	8	0	0	1.0	1.0	0	0
18	2	2	38	0	0	2	1	3	4	1.122	1.07	4	2	3.0		1	212	3	8	0	0	2.0	2.0	1	0
18	2	2	39	0	0	2	1	3	4	0.854	0.948	4	2	1.0		1	213	1	8	0	0	2.0	1.0	1	1
18	2	2	40	0	0	2	2	4	3	1.343	0.785	3	2	8.0		1	221	4	8	0	0	2.0	1.0	1	0
18	2	2	41	0	0	1	1	2	1	1.414	0.782	2	1	4.0		1	225	4	9	0	0	2.0	2.0	0	0
18	2	2	42	0	0	1	2	1	2	1.216	0.992	1	1	9.0		1	234	5	9	0	0	1.0	1.0	1	0
18	2	2	43	0	0	2	2	4	3	0.804	0.792	3	2	9.0		1	243	4	9	0	0	1.0	2.0	0	1
18	2	2	44	0	0	2	2	3	4	1.362	1.078	3	1	8.0		1	251	2	8	0	0	2.0	2.0	1	1
18	2	2	45	0	0	1	1	1	2	1.53	1.382	2	2	4.0		1	255	4	5	0	0	2.0	2.0	0	0
18	2	2	46	0	0	2	2	3	4	0.734	0.924	3	1	9.0		1	264	3	9	0	0	1.0	1.0	0	0
18	2	2	47	0	0	2	2	4	3	0.832	0.504	3	2	9.0		1	273	2	9	0	0	2.0	2.0	1	1
18	2	2	48	0	0	1	2	1	2	0.604	0.361	1	1	8.0		1	281	1	8	0	0	2.0	2.0	0	1
18	2	2	49	0	0	1	1	1	2	0.752	0.321	2	2	4.0		1	285	4	8	0	0	1.0	2.0	1	0
18	2	2	50	0	0	1	2	2	1	1.166	0.48	1	2	8.0		1	293	4	8	0	0	1.0	1.0	1	0
18	2	3	51	0	0	2	2	3	4	0.93	0.427	3	1	7.0		1	300	2	7	0	0	1.0	2.0	0	1
18	2	3	52	0	0	1	1	1	2	0.733	0.897	2	2	3.0		1	303	3	8	0	0	2.0	2.0	0	0
18	2	3	53	0	0	2	1	4	3	0.985	0.614	4	1	3.0		1	306	3	7	0	0	1.0	1.0	0	1
18	2	3	54	0	0	1	2	2	1	0.686	0.607	1	2	6.0		1	312	3	6	0	0	2.0	1.0	0	0
18	2	3	55	0	0	1	2	2	1	1.533	1.286	1	2	8.0		1	320	4	8	0	0	1.0	2.0	1	1
18	2	3	56	1	0	2	0	3	4	-1.0	-1.0	-1	3	0.0		0	320	4	9	1	1	1.0	2.0	0	0
18	2	3	57	0	0	1	2	2	1	1.081	0.855	1	2	8.0		1	328	1	8	0	0	2.0	0.0	0	0
18	2	3	58	0	0	1	2	2	1	0.655	1.229	1	2	8.0		1	336	1	8	0	0	1.0	2.0	1	1
18	2	3	59	0	0	1	1	2	1	0.373	0.674	2	1	1.0		1	337	1	7	0	0	1.0	2.0	1	0
18	2	3	60	0	0	1	2	2	1	0.726	0.567	1	2	8.0		1	345	0	8	0	0	1.0	1.0	1	0
18	2	3	61	0	0	1	2	1	2	0.629	0.667	1	1	7.0		1	352	1	7	0	0	1.0	2.0	1	1
18	2	3	62	0	0	2	2	4	3	0.938	1.297	3	2	6.0		1	358	2	6	0	0	1.0	2.0	0	1
18	2	3	63	0	0	1	1	2	1	0.748	0.361	2	1	1.0		1	359	1	7	0	0	2.0	2.0	0	0
18	2	3	64	0	0	2	1	4	3	1.249	0.373	4	1	7.0		1	366	7	7	0	0	1.0	1.0	0	1
18	2	3	65	0	0	1	2	2	1	0.746	0.734	1	2	6.0		1	372	6	6	0	0	2.0	1.0	0	0
18	2	3	66	0	0	1	2	1	2	1.004	1.063	1	1	6.0		1	378	8	6	0	0	1.0	2.0	1	1
18	2	3	67	0	0	2	2	3	4	1.309	0.499	3	1	7.0		1	385	7	7	0	0	1.0	2.0	0	1
18	2	3	68	0	0	2	1	3	4	0.916	0.608	4	2	7.0		1	392	7	6	0	0	2.0	2.0	1	0
18	2	3	69	0	0	2	2	4	3	1.061	0.844	3	2	5.0		1	397	7	5	0	0	2.0	1.0	1	0
18	2	3	70	0	0	1	1	1	2	1.609	0.665	2	2	7.0		1	404	7	6	0	0	2.0	2.0	0	0
18	2	3	71	0	0	2	1	4	3	1.133	0.563	4	1	6.0		1	410	6	8	0	0	1.0	1.0	0	1
18	2	3	72	0	0	1	2	2	1	0.849	0.578	1	2	6.0		1	416	8	6	0	0	2.0	1.0	0	0
18	2	3	73	0	0	1	2	1	2	1.096	0.469	1	1	8.0		1	424	4	8	0	0	1.0	2.0	1	1
18	2	3	74	0	0	1	1	1	2	0.301	0.706	2	2	6.0		1	430	6	8	0	0	1.0	2.0	1	0
18	2	3	75	0	0	1	2	1	2	1.087	0.947	1	1	7.0		1	437	6	7	0	0	1.0	1.0	1	0
18	2	4	76	0	0	1	2	2	1	1.107	0.33	1	2	9.0		1	446	5	9	0	0	1.0	2.0	1	1
18	2	4	77	0	0	1	1	1	2	0.653	0.424	2	2	0.0		0	446	0	8	0	0	1.0	2.0	1	0
18	2	4	78	0	0	1	2	2	1	1.018	0.567	1	2	8.0		1	454	1	8	0	0	1.0	1.0	1	0
18	2	4	79	0	0	1	2	1	2	0.336	0.577	1	1	8.0		1	462	1	8	0	0	1.0	2.0	1	1
18	2	4	80	0	0	2	1	3	4	0.307	0.612	4	2	0.0		0	462	0	8	0	0	1.0	2.0	0	0
18	2	4	81	0	0	2	2	3	4	1.163	0.557	3	1	6.0		1	468	1	6	0	0	2.0	1.0	1	0
18	2	4	82	0	1	2	2	4	3	0.743	-1.0	3	2	0.0		0	468	1	6	0	1	2.0	2.0	1	1
18	2	4	83	0	0	2	2	3	4	0.805	0.358	3	1	7.0		1	475	1	7	0	0	2.0	2.0	1	1
18	2	4	84	0	0	2	2	4	3	0.71	1.395	3	2	8.0		1	483	0	8	0	0	2.0	2.0	1	1
18	2	4	85	0	0	1	2	1	2	0.652	0.778	1	1	9.0		1	492	0	9	0	0	2.0	2.0	0	1
18	2	4	86	0	0	2	2	4	3	0.359	0.658	3	2	8.0		1	500	1	8	0	0	1.0	2.0	0	1
18	2	4	87	0	0	1	2	1	2	0.656	0.6	1	1	8.0		1	508	1	8	0	0	2.0	2.0	0	1
18	2	4	88	0	0	1	2	2	1	0.472	0.475	1	2	7.0		1	515	1	7	0	0	1.0	2.0	1	1
18	2	4	89	0	0	1	2	1	2	0.641	0.549	1	1	7.0		1	522	1	7	0	0	1.0	2.0	1	1
18	2	4	90	0	0	2	2	4	3	0.835	0.465	3	2	9.0		1	531	2	9	0	0	1.0	2.0	0	1
18	2	4	91	0	0	2	2	4	3	0.753	1.546	3	2	8.0		1	539	0	8	0	0	2.0	2.0	1	1
18	2	4	92	0	0	2	2	3	4	0.759	0.535	3	1	9.0		1	548	4	9	0	0	2.0	2.0	1	1
18	2	4	93	0	0	1	2	2	1	0.566	0.601	1	2	7.0		1	555	1	7	0	0	2.0	2.0	0	1
18	2	4	94	0	0	2	1	4	3	0.662	0.47	4	1	0.0		0	555	0	8	0	0	1.0	2.0	0	0
18	2	4	95	0	0	2	2	3	4	1.282	0.498	3	1	7.0		1	562	3	7	0	0	2.0	1.0	1	0
18	2	4	96	0	0	1	2	1	2	1.453	1.017	1	1	5.0		1	567	1	5	0	0	2.0	2.0	0	1
18	2	4	97	0	0	1	1	1	2	0.646	0.473	2	2	2.0		1	569	2	5	0	0	1.0	2.0	1	0
18	2	4	98	0	0	2	2	3	4	1.042	0.493	3	1	4.0		1	573	0	4	0	0	1.0	1.0	0	0
18	2	4	99	0	0	2	2	4	3	0.785	0.654	3	2	5.0		1	578	2	5	0	0	2.0	2.0	1	1
18	2	4	100	0	0	2	1	3	4	1.063	0.728	4	2	4.0		1	582	4	4	0	0	2.0	2.0	1	0
19	2	1	1	0	0	2	2	4	3	0.988	0.698	3	2	0.0		0	0	7	0	0	0	0.0	0.0	0	0
19	2	1	2	0	0	1	1	2	1	1.215	0.334	2	1	4.0		1	4	4	1	0	0	2.0	2.0	0	0
19	2	1	3	0	0	2	2	3	4	1.122	0.301	3	1	1.0		1	5	2	1	0	0	1.0	1.0	0	0
19	2	1	4	0	0	1	1	1	2	1.74	0.606	2	2	5.0		1	10	5	2	0	0	2.0	2.0	0	0
19	2	1	5	0	0	1	1	1	2	0.805	0.584	2	2	6.0		1	16	6	2	0	0	1.0	1.0	1	1
19	2	1	6	1	0	2	0	4	3	-1.0	-1.0	-1	3	0.0		0	16	7	0	1	1	1.0	1.0	0	0
19	2	1	7	0	0	1	2	1	2	0.54	0.367	1	1	3.0		1	19	6	3	0	0	2.0	0.0	0	0
19	2	1	8	0	0	2	1	3	4	0.688	0.267	4	2	8.0		1	27	8	8	0	0	1.0	2.0	0	0
19	2	1	9	0	0	1	2	1	2	1.057	0.34	1	1	8.0		1	35	5	8	0	0	2.0	1.0	0	0
19	2	1	10	0	0	1	2	2	1	0.92	1.17	1	2	3.0		1	38	3	3	0	0	1.0	2.0	1	1
19	2	1	11	0	0	1	2	1	2	0.9	0.514	1	1	2.0		1	40	3	2	0	0	1.0	2.0	1	1
19	2	1	12	0	0	2	2	4	3	0.35	0.666	3	2	6.0		1	46	2	6	0	0	1.0	2.0	0	1
19	2	1	13	0	0	2	2	3	4	0.646	0.552	3	1	7.0		1	53	4	7	0	0	2.0	2.0	1	1
19	2	1	14	0	0	2	2	3	4	0.647	0.639	3	1	8.0		1	61	2	8	0	0	2.0	2.0	1	1
19	2	1	15	0	0	2	1	3	4	0.594	0.356	4	2	2.0		1	63	2	4	0	0	2.0	2.0	1	0
19	2	1	16	0	0	2	2	3	4	0.686	0.727	3	1	4.0		1	67	1	4	0	0	2.0	1.0	1	0
19	2	1	17	0	0	2	1	3	4	0.686	0.271	4	2	1.0		1	68	1	3	0	0	2.0	2.0	1	0
19	2	1	18	0	0	1	2	2	1	0.83	0.666	1	2	7.0		1	75	2	7	0	0	2.0	1.0	0	0
19	2	1	19	0	0	1	1	1	2	1.536	0.94	2	2	2.0		1	77	2	6	0	0	1.0	2.0	1	0
19	2	1	20	0	0	2	1	4	3	0.906	0.543	4	1	0.0		0	77	0	6	0	0	1.0	1.0	0	1
19	2	1	21	0	0	1	1	1	2	0.809	0.594	2	2	4.0		1	81	4	3	0	0	2.0	1.0	0	1
19	2	1	22	0	0	2	2	3	4	1.038	0.504	3	1	3.0		1	84	6	3	0	0	1.0	1.0	0	0
19	2	1	23	0	0	1	2	1	2	0.831	0.323	1	1	6.0		1	90	4	6	0	0	2.0	2.0	0	1
19	2	1	24	0	0	1	2	2	1	1.11	0.418	1	2	7.0		1	97	1	7	0	0	1.0	2.0	1	1
19	2	1	25	0	0	1	1	1	2	0.783	0.556	2	2	2.0		1	99	2	7	0	0	1.0	2.0	1	0
19	2	2	26	0	0	2	1	4	3	0.755	0.556	4	1	1.0		1	100	1	6	0	0	1.0	1.0	0	1
19	2	2	27	0	0	1	2	2	1	0.799	0.684	1	2	2.0		1	102	1	2	0	0	2.0	1.0	0	0
19	2	2	28	0	0	2	2	3	4	0.545	0.509	3	1	2.0		1	104	2	2	0	0	1.0	2.0	0	1
19	2	2	29	0	0	2	2	3	4	1.525	0.494	3	1	3.0		1	107	5	3	0	0	2.0	2.0	1	1
19	2	2	30	0	0	2	2	3	4	1.564	0.727	3	1	2.0		1	109	3	2	0	0	2.0	2.0	1	1
19	2	2	31	0	0	2	1	3	4	0.601	0.877	4	2	6.0		1	115	6	0	0	0	2.0	2.0	1	0
19	2	2	32	0	0	1	1	1	2	0.864	0.447	2	2	7.0		1	122	7	1	0	0	2.0	1.0	0	1
19	2	2	33	0	0	2	2	4	3	1.083	0.613	3	2	2.0		1	124	4	2	0	0	1.0	1.0	0	0
19	2	2	34	0	0	2	1	4	3	0.752	0.5	4	1	7.0		1	131	7	4	0	0	2.0	2.0	1	0
19	2	2	35	0	0	1	2	2	1	0.816	0.566	1	2	2.0		1	133	7	2	0	0	2.0	1.0	0	0
19	2	2	36	0	0	2	1	3	4	0.798	1.157	4	2	7.0		1	140	7	3	0	0	1.0	2.0	0	0
19	2	2	37	0	0	1	1	1	2	1.207	0.339	2	2	6.0		1	146	6	2	0	0	2.0	1.0	0	1
19	2	2	38	0	0	2	2	3	4	0.592	0.319	3	1	4.0		1	150	5	4	0	0	1.0	1.0	0	0
19	2	2	39	0	0	2	1	3	4	0.83	0.912	4	2	6.0		1	156	6	7	0	0	2.0	2.0	1	0
19	2	2	40	0	0	1	1	1	2	0.489	0.476	2	2	8.0		1	164	8	9	0	0	2.0	1.0	0	1
19	2	2	41	0	0	2	2	4	3	0.455	0.381	3	2	6.0		1	170	8	6	0	0	1.0	1.0	0	0
19	2	2	42	0	0	1	2	2	1	0.903	0.37	1	2	3.0		1	173	6	3	0	0	2.0	2.0	0	1
19	2	2	43	0	0	2	1	3	4	0.635	1.031	4	2	4.0		1	177	4	4	0	0	1.0	2.0	0	0
19	2	2	44	0	0	2	1	3	4	0.713	0.572	4	2	2.0		1	179	2	3	0	0	2.0	1.0	1	1
19	2	2	45	0	0	1	1	2	1	0.709	0.327	2	1	5.0		1	184	5	1	0	0	2.0	1.0	0	1
19	2	2	46	0	0	1	2	2	1	0.786	0.719	1	2	1.0		1	185	8	1	0	0	1.0	1.0	1	0
19	2	2	47	0	0	2	2	4	3	0.329	0.392	3	2	1.0		1	186	8	1	0	0	1.0	2.0	0	1
19	2	2	48	0	0	2	1	3	4	1.934	0.587	4	2	9.0		1	195	9	0	0	0	2.0	2.0	1	0
19	2	2	49	0	0	1	2	2	1	1.04	0.526	1	2	3.0		1	198	8	3	0	0	2.0	1.0	0	0
19	2	2	50	0	0	2	1	4	3	0.432	0.49	4	1	7.0		1	205	7	2	0	0	1.0	2.0	0	0
19	2	3	51	0	0	1	2	2	1	0.423	0.322	1	2	2.0		1	207	5	2	0	0	2.0	1.0	0	0
19	2	3	52	0	0	2	1	4	3	0.426	0.321	4	1	8.0		1	215	8	3	0	0	1.0	2.0	0	0
19	2	3	53	0	0	2	1	3	4	0.67	0.384	4	2	7.0		1	222	7	5	0	0	2.0	1.0	1	1
19	2	3	54	0	1	1	2	1	2	1.929	-1.0	1	1	0.0		0	222	8	5	0	1	2.0	1.0	0	0
19	2	3	55	0	0	1	2	1	2	0.362	0.329	1	1	5.0		1	227	8	5	0	0	1.0	2.0	1	1
19	2	3	56	0	0	2	1	3	4	0.319	0.28	4	2	7.0		1	234	7	4	0	0	1.0	2.0	0	0
19	2	3	57	0	0	2	2	3	4	0.439	0.59	3	1	3.0		1	237	9	3	0	0	2.0	1.0	1	0
19	2	3	58	0	0	1	1	1	2	0.303	0.316	2	2	8.0		1	245	8	2	0	0	2.0	2.0	0	0
19	2	3	59	0	0	2	2	4	3	0.646	0.367	3	2	2.0		1	247	9	2	0	0	1.0	1.0	0	0
19	2	3	60	0	0	1	1	1	2	0.734	0.89	2	2	7.0		1	254	7	6	0	0	2.0	2.0	0	0
19	2	3	61	0	0	2	2	4	3	1.024	0.395	3	2	8.0		1	262	3	8	0	0	1.0	1.0	0	0
19	2	3	62	0	0	2	1	4	3	0.683	0.269	4	1	4.0		1	266	4	3	0	0	2.0	2.0	1	0
19	2	3	63	0	0	1	2	2	1	0.369	0.577	1	2	5.0		1	271	3	5	0	0	2.0	1.0	0	0
19	2	3	64	0	0	1	1	1	2	0.823	0.683	2	2	1.0		1	272	1	5	0	0	1.0	2.0	1	0
19	2	3	65	0	0	2	2	4	3	0.766	0.525	3	2	4.0		1	276	3	4	0	0	1.0	1.0	0	0
19	2	3	66	0	0	2	2	4	3	0.787	0.962	3	2	5.0		1	281	4	5	0	0	2.0	2.0	1	1
19	2	3	67	0	0	1	2	2	1	1.38	0.313	1	2	6.0		1	287	7	6	0	0	2.0	2.0	0	1
19	2	3	68	0	0	1	2	2	1	0.935	0.59	1	2	5.0		1	292	8	5	0	0	1.0	2.0	1	1
19	2	3	69	0	0	2	2	4	3	0.734	0.266	3	2	6.0		1	298	9	6	0	0	1.0	2.0	0	1
19	2	3	70	0	0	2	1	3	4	0.706	0.837	4	2	9.0		1	307	9	6	0	0	2.0	2.0	1	0
19	2	3	71	0	0	2	1	3	4	0.595	0.68	4	2	7.0		1	314	7	5	0	0	2.0	1.0	1	1
19	2	3	72	0	0	2	2	4	3	0.446	0.681	3	2	6.0		1	320	6	6	0	0	2.0	1.0	1	0
19	2	3	73	0	0	2	2	4	3	0.589	0.49	3	2	2.0		1	322	5	2	0	0	2.0	2.0	1	1
19	2	3	74	0	0	1	1	1	2	0.779	0.402	2	2	5.0		1	327	5	6	0	0	2.0	2.0	0	0
19	2	3	75	0	0	1	1	2	1	0.465	1.777	2	1	1.0		1	328	1	6	0	0	1.0	1.0	1	1
19	2	4	76	0	0	2	2	4	3	0.701	0.249	3	2	6.0		1	334	3	6	0	0	1.0	1.0	0	0
19	2	4	77	0	0	2	2	3	4	0.809	0.669	3	1	3.0		1	337	1	3	0	0	2.0	2.0	1	1
19	2	4	78	0	0	2	2	4	3	0.604	0.362	3	2	3.0		1	340	2	3	0	0	2.0	2.0	1	1
19	2	4	79	0	0	1	2	1	2	0.865	0.244	1	1	5.0		1	345	4	5	0	0	2.0	2.0	0	1
19	2	4	80	0	0	2	1	3	4	0.638	0.87	4	2	5.0		1	350	5	4	0	0	1.0	2.0	0	0
19	2	4	81	0	0	1	2	2	1	0.491	0.704	1	2	7.0		1	357	5	7	0	0	2.0	1.0	0	0
19	2	4	82	0	0	2	1	3	4	1.121	0.407	4	2	5.0		1	362	5	4	0	0	1.0	2.0	0	0
19	2	4	83	0	0	1	2	1	2	0.623	0.274	1	1	1.0		1	363	6	1	0	0	2.0	1.0	0	0
19	2	4	84	0	0	1	1	1	2	0.438	0.744	2	2	6.0		1	369	6	1	0	0	1.0	2.0	1	0
19	2	4	85	0	0	1	1	1	2	0.486	0.612	2	2	5.0		1	374	5	1	0	0	1.0	1.0	1	1
19	2	4	86	0	0	2	1	3	4	0.589	0.602	4	2	3.0		1	377	3	1	0	0	1.0	1.0	0	1
19	2	4	87	0	0	1	2	1	2	0.326	0.279	1	1	3.0		1	380	6	3	0	0	2.0	1.0	0	0
19	2	4	88	0	0	1	1	1	2	0.316	0.492	2	2	6.0		1	386	6	3	0	0	1.0	2.0	1	0
19	2	4	89	0	0	1	2	2	1	0.34	0.817	1	2	4.0		1	390	6	4	0	0	1.0	1.0	1	0
19	2	4	90	0	0	2	1	3	4	0.409	0.642	4	2	3.0		1	393	3	2	0	0	1.0	2.0	0	0
19	2	4	91	0	0	1	2	1	2	0.99	0.51	1	1	1.0		1	394	1	1	0	0	2.0	1.0	0	0
19	2	4	92	0	0	1	1	1	2	0.349	0.296	2	2	2.0		1	396	2	4	0	0	1.0	2.0	1	0
19	2	4	93	0	0	1	1	2	1	0.38	0.295	2	1	1.0		1	397	1	6	0	0	1.0	1.0	1	1
19	2	4	94	0	0	1	2	2	1	0.336	0.308	1	2	4.0		1	401	0	4	0	0	1.0	1.0	1	0
19	2	4	95	0	0	2	1	3	4	0.776	1.078	4	2	1.0		1	402	1	4	0	0	1.0	2.0	0	0
19	2	4	96	0	0	1	1	2	1	0.49	0.277	2	1	2.0		1	404	2	2	0	0	2.0	1.0	0	1
19	2	4	97	0	0	2	2	4	3	0.32	0.374	3	2	3.0		1	407	2	3	0	0	1.0	1.0	0	0
19	2	4	98	0	1	1	1	1	2	0.583	-1.0	2	2	0.0		0	407	1	3	0	1	2.0	2.0	0	0
19	2	4	99	0	0	2	1	4	3	0.425	0.514	4	1	2.0		1	409	2	1	0	0	1.0	1.0	0	1
19	2	4	100	0	0	1	2	2	1	0.804	0.521	1	2	1.0		1	410	3	1	0	0	2.0	1.0	0	0
20	2	1	1	0	0	1	2	1	2	0.98	0.251	1	1	0.0		0	0	6	0	0	0	0.0	0.0	0	0
20	2	1	2	0	0	2	1	3	4	1.045	0.555	4	2	6.0		1	6	6	4	0	0	1.0	2.0	0	0
20	2	1	3	0	0	2	1	4	3	1.105	0.729	4	1	5.0		1	11	5	9	0	0	2.0	1.0	1	1
20	2	1	4	0	0	2	1	4	3	1.186	0.782	4	1	6.0		1	17	6	8	0	0	2.0	1.0	1	1
20	2	1	5	1	0	2	0	3	4	-1.0	-1.0	-1	3	0.0		0	17	7	5	1	1	2.0	1.0	1	0
20	2	1	6	0	0	1	2	2	1	0.817	0.823	1	2	6.0		1	23	5	6	0	0	2.0	0.0	0	0
20	2	1	7	1	0	1	0	2	1	-1.0	-1.0	-1	3	0.0		0	23	6	8	1	1	1.0	2.0	1	0
20	2	1	8	0	0	1	1	1	2	0.826	0.418	2	2	7.0		1	30	7	8	0	0	1.0	0.0	1	0
20	2	1	9	0	0	2	1	3	4	0.95	0.776	4	2	6.0		1	36	6	6	0	0	1.0	1.0	0	1
20	2	1	10	0	0	2	1	4	3	0.869	0.726	4	1	4.0		1	40	4	6	0	0	2.0	1.0	1	1
20	2	1	11	0	0	1	2	2	1	1.289	0.643	1	2	9.0		1	49	6	9	0	0	2.0	1.0	0	0
20	2	1	12	0	0	1	1	2	1	1.192	0.596	2	1	7.0		1	56	7	5	0	0	1.0	2.0	1	0
20	2	1	13	0	0	2	1	3	4	1.382	0.424	4	2	8.0		1	64	8	0	0	0	1.0	1.0	0	1
20	2	1	14	0	0	2	2	4	3	1.197	0.285	3	2	0.0		0	64	9	0	0	0	2.0	1.0	1	0
20	2	1	15	0	0	1	1	2	1	1.002	0.547	2	1	4.0		1	68	4	0	0	0	2.0	2.0	0	0
20	2	1	16	0	0	2	2	3	4	0.669	0.503	3	1	0.0		0	68	2	0	0	0	1.0	1.0	0	0
20	2	1	17	0	0	2	1	3	4	0.883	0.554	4	2	0.0		0	68	0	1	0	0	2.0	2.0	1	0
20	2	1	18	0	0	1	2	1	2	0.905	0.379	1	1	2.0		1	70	0	2	0	0	2.0	1.0	0	0
20	2	1	19	0	0	2	2	3	4	1.157	0.603	3	1	1.0		1	71	1	1	0	0	1.0	2.0	0	1
20	2	1	20	0	0	2	2	4	3	1.137	0.33	3	2	2.0		1	73	2	2	0	0	2.0	2.0	1	1
20	2	1	21	0	0	1	1	1	2	1.028	0.414	2	2	4.0		1	77	4	1	0	0	2.0	2.0	0	0
20	2	1	22	0	0	2	1	3	4	1.185	0.713	4	2	0.0		0	77	0	0	0	0	1.0	1.0	0	1
20	2	1	23	0	0	2	2	3	4	1.092	0.392	3	1	1.0		1	78	5	1	0	0	2.0	1.0	1	0
20	2	1	24	0	0	2	2	4	3	0.648	0.713	3	2	0.0		0	78	2	0	0	0	2.0	2.0	1	1
20	2	1	25	0	0	1	1	1	2	1.283	0.336	2	2	0.0		0	78	0	2	0	0	2.0	2.0	0	0
20	2	2	26	1	0	2	0	4	3	-1.0	-1.0	-1	3	0.0		0	78	2	5	1	1	1.0	1.0	0	0
20	2	2	27	0	0	1	1	1	2	0.593	0.763	2	2	6.0		1	84	6	7	0	0	2.0	0.0	0	0
20	2	2	28	0	0	1	1	1	2	1.375	0.705	2	2	6.0		1	90	6	6	0	0	1.0	1.0	1	1
20	2	2	29	0	0	2	1	3	4	1.26	1.649	4	2	6.0		1	96	6	6	0	0	1.0	1.0	0	1
20	2	2	30	0	0	2	2	4	3	1.457	0.36	3	2	4.0		1	100	6	4	0	0	2.0	1.0	1	0
20	2	2	31	0	0	1	2	2	1	1.102	0.853	1	2	4.0		1	104	9	4	0	0	2.0	2.0	0	1
20	2	2	32	1	0	1	0	1	2	-1.0	-1.0	-1	3	0.0		0	104	8	4	1	1	1.0	2.0	1	0
20	2	2	33	0	1	2	1	4	3	1.199	-1.0	4	1	0.0		0	104	7	5	0	1	1.0	0.0	0	0
20	2	2	34	0	0	1	1	2	1	1.113	0.679	2	1	7.0		1	111	7	6	0	0	2.0	1.0	0	1
20	2	2	35	0	0	2	1	3	4	1.444	0.51	4	2	4.0		1	115	4	6	0	0	1.0	1.0	0	1
20	2	2	36	0	0	1	1	2	1	1.207	1.174	2	1	6.0		1	121	6	8	0	0	2.0	1.0	0	1
20	2	2	37	0	0	2	1	4	3	1.274	0.714	4	1	4.0		1	125	4	7	0	0	1.0	1.0	0	1
20	2	2	38	0	0	2	1	4	3	1.183	0.765	4	1	6.0		1	131	6	5	0	0	2.0	1.0	1	1
20	2	2	39	1	0	2	0	3	4	-1.0	-1.0	-1	3	0.0		0	131	8	7	1	1	2.0	1.0	1	0
20	2	2	40	0	0	2	1	4	3	0.799	1.348	4	1	8.0		1	139	8	5	0	0	2.0	0.0	1	0
20	2	2	41	0	0	2	1	3	4	0.794	0.635	4	2	9.0		1	148	9	7	0	0	2.0	1.0	1	1
20	2	2	42	0	0	2	1	3	4	1.125	0.918	4	2	9.0		1	157	9	6	0	0	2.0	1.0	1	1
20	2	2	43	0	0	2	1	3	4	1.519	1.591	4	2	8.0		1	165	8	7	0	0	2.0	1.0	1	1
20	2	2	44	0	0	2	1	4	3	1.605	0.811	4	1	8.0		1	173	8	3	0	0	2.0	1.0	1	1
20	2	2	45	0	0	1	1	2	1	0.795	0.436	2	1	5.0		1	178	5	2	0	0	2.0	1.0	0	1
20	2	2	46	0	0	1	1	2	1	1.224	0.933	2	1	3.0		1	181	3	4	0	0	1.0	1.0	1	1
20	2	2	47	0	0	1	2	2	1	1.591	0.487	1	2	5.0		1	186	3	5	0	0	1.0	1.0	1	0
20	2	2	48	0	0	1	2	1	2	0.75	0.71	1	1	3.0		1	189	5	3	0	0	1.0	2.0	1	1
20	2	2	49	0	0	1	1	1	2	1.194	0.843	2	2	6.0		1	195	6	3	0	0	1.0	2.0	1	0
20	2	2	50	0	0	2	2	4	3	1.011	1.874	3	2	3.0		1	198	6	3	0	0	1.0	1.0	0	0
20	2	3	51	0	0	2	1	3	4	1.081	0.811	4	2	7.0		1	205	7	4	0	0	2.0	2.0	1	0
20	2	3	52	0	0	1	2	2	1	0.693	0.618	1	2	6.0		1	211	5	6	0	0	2.0	1.0	0	0
20	2	3	53	0	0	1	1	1	2	1.908	0.768	2	2	3.0		1	214	3	7	0	0	1.0	2.0	1	0
20	2	3	54	0	0	2	2	4	3	0.853	0.702	3	2	9.0		1	223	2	9	0	0	1.0	1.0	0	0
20	2	3	55	0	0	1	1	1	2	1.677	0.843	2	2	3.0		1	226	3	7	0	0	2.0	2.0	0	0
20	2	3	56	0	0	1	1	1	2	0.806	0.75	2	2	4.0		1	230	4	5	0	0	1.0	1.0	1	1
20	2	3	57	0	0	2	2	4	3	0.686	0.959	3	2	4.0		1	234	0	4	0	0	1.0	1.0	0	0
20	2	3	58	0	0	1	1	1	2	1.099	0.368	2	2	1.0		1	235	1	2	0	0	2.0	2.0	0	0
20	2	3	59	0	0	2	2	3	4	0.957	0.52	3	1	1.0		1	236	4	1	0	0	1.0	1.0	0	0
20	2	3	60	0	0	1	1	1	2	0.55	1.036	2	2	4.0		1	240	4	1	0	0	2.0	2.0	0	0
20	2	3	61	0	0	1	1	1	2	0.935	0.927	2	2	5.0		1	245	5	3	0	0	1.0	1.0	1	1
20	2	3	62	0	0	1	2	2	1	0.655	0.687	1	2	1.0		1	246	3	1	0	0	1.0	1.0	1	0
20	2	3	63	0	0	1	1	2	1	0.56	1.351	2	1	0.0		0	246	0	3	0	0	1.0	2.0	1	0
20	2	3	64	0	0	2	2	4	3	0.815	0.711	3	2	2.0		1	248	0	2	0	0	1.0	1.0	0	0
20	2	3	65	0	0	2	1	3	4	0.96	0.749	4	2	0.0		0	248	0	4	0	0	2.0	2.0	1	0
20	2	3	66	0	0	1	2	1	2	1.315	0.661	1	1	7.0		1	255	2	7	0	0	2.0	1.0	0	0
20	2	3	67	0	0	2	1	4	3	1.322	0.814	4	1	2.0		1	257	2	5	0	0	1.0	2.0	0	0
20	2	3	68	0	0	2	2	3	4	1.511	0.883	3	1	0.0		0	257	2	0	0	0	2.0	1.0	1	0
20	2	3	69	0	0	2	2	4	3	1.021	0.002	3	2	3.0		1	260	0	3	0	0	2.0	2.0	1	1
20	2	3	70	0	0	2	2	4	3	1.806	0.721	3	2	1.0		1	261	2	1	0	0	2.0	2.0	1	1
20	2	3	71	1	0	1	0	1	2	-1.0	-1.0	-1	3	0.0		0	261	3	2	1	1	2.0	2.0	0	0
20	2	3	72	0	0	2	2	3	4	0.996	0.583	3	1	0.0		0	261	1	0	0	0	1.0	0.0	0	0
20	2	3	73	0	0	2	2	3	4	1.483	0.862	3	1	4.0		1	265	1	4	0	0	2.0	2.0	1	1
20	2	3	74	0	0	2	1	4	3	1.029	0.456	4	1	0.0		0	265	0	7	0	0	2.0	2.0	1	0
20	2	3	75	0	0	2	2	4	3	0.81	0.589	3	2	8.0		1	273	3	8	0	0	2.0	1.0	1	0
20	2	4	76	0	0	2	1	3	4	0.965	0.939	4	2	2.0		1	275	2	7	0	0	2.0	2.0	1	0
20	2	4	77	0	1	1	1	1	2	0.71	-1.0	2	2	0.0		0	275	2	7	0	1	2.0	1.0	0	1
20	2	4	78	0	0	1	1	1	2	0.668	0.784	2	2	2.0		1	277	2	5	0	0	1.0	1.0	1	1
20	2	4	79	1	0	1	0	1	2	-1.0	-1.0	-1	3	0.0		0	277	0	1	1	1	1.0	1.0	1	0
20	2	4	80	0	0	2	2	3	4	0.591	0.611	3	1	0.0		0	277	2	0	0	0	1.0	0.0	0	0
20	2	4	81	0	0	2	1	4	3	0.643	0.28	4	1	2.0		1	279	2	2	0	0	2.0	2.0	1	0
20	2	4	82	0	0	1	2	2	1	1.103	1.538	1	2	1.0		1	280	4	1	0	0	2.0	1.0	0	0
20	2	4	83	0	0	2	2	3	4	0.991	0.629	3	1	2.0		1	282	3	2	0	0	1.0	2.0	0	1
20	2	4	84	0	0	1	2	2	1	1.511	1.277	1	2	1.0		1	283	1	1	0	0	2.0	2.0	0	1
20	2	4	85	0	0	1	1	2	1	1.435	0.653	2	1	2.0		1	285	2	4	0	0	1.0	2.0	1	0
20	2	4	86	0	0	1	2	2	1	0.564	0.609	1	2	1.0		1	286	5	1	0	0	1.0	1.0	1	0
20	2	4	87	0	0	2	1	3	4	0.603	0.417	4	2	2.0		1	288	2	2	0	0	1.0	2.0	0	0
20	2	4	88	0	0	1	1	2	1	0.89	0.394	2	1	3.0		1	291	3	0	0	0	2.0	1.0	0	1
20	2	4	89	0	0	2	2	4	3	0.858	0.337	3	2	1.0		1	292	4	1	0	0	1.0	1.0	0	0
20	2	4	90	0	0	1	1	2	1	1.048	0.535	2	1	3.0		1	295	3	5	0	0	2.0	2.0	0	0
20	2	4	91	0	0	2	1	3	4	1.082	0.56	4	2	1.0		1	296	1	5	0	0	1.0	1.0	0	1
20	2	4	92	0	0	2	2	3	4	0.495	0.596	3	1	6.0		1	302	0	6	0	0	2.0	1.0	1	0
20	2	4	93	1	0	2	0	4	3	-1.0	-1.0	-1	3	0.0		0	302	1	5	1	1	2.0	2.0	1	0
20	2	4	94	0	0	2	1	3	4	1.501	0.783	4	2	1.0		1	303	1	7	0	0	2.0	0.0	1	0
20	2	4	95	0	0	1	1	2	1	0.466	0.712	2	1	0.0		0	303	0	8	0	0	2.0	1.0	0	1
20	2	4	96	0	0	2	2	4	3	0.626	0.882	3	2	7.0		1	310	1	7	0	0	1.0	1.0	0	0
20	2	4	97	0	0	2	1	4	3	1.275	0.505	4	1	1.0		1	311	1	6	0	0	2.0	2.0	1	0
20	2	4	98	0	0	1	2	2	1	1.148	0.671	1	2	8.0		1	319	3	8	0	0	2.0	1.0	0	0
20	2	4	99	0	0	1	2	2	1	1.078	0.518	1	2	9.0		1	328	2	9	0	0	1.0	2.0	1	1
20	2	4	100	0	0	1	2	1	2	1.119	0.497	1	1	9.0		1	337	2	9	0	0	1.0	2.0	1	1
21	1	1	1	0	0	2	2	3	4	0.553	0.386	3	1	3.0		1	3	8	3	0	0	0.0	0.0	0	0
21	1	1	2	0	0	2	1	4	3	0.89	0.482	4	1	8.0		1	11	8	2	0	0	2.0	2.0	1	0
21	1	1	3	0	0	2	1	4	3	0.949	0.669	4	1	8.0		1	19	8	0	0	0	2.0	1.0	1	1
21	1	1	4	0	0	2	2	4	3	1.472	1.216	3	2	3.0		1	22	9	3	0	0	2.0	1.0	1	0
21	1	1	5	0	0	2	2	3	4	1.874	1.129	3	1	3.0		1	25	9	3	0	0	2.0	2.0	1	1
21	1	1	6	0	0	1	1	2	1	1.058	0.594	2	1	7.0		1	32	7	0	0	0	2.0	2.0	0	0
21	1	1	7	0	0	2	2	4	3	1.282	0.736	3	2	2.0		1	34	9	2	0	0	1.0	1.0	0	0
21	1	1	8	0	0	2	1	3	4	0.892	0.852	4	2	6.0		1	40	6	4	0	0	2.0	2.0	1	0
21	1	1	9	0	0	2	1	3	4	1.237	1.301	4	2	4.0		1	44	4	4	0	0	2.0	1.0	1	1
21	1	1	10	0	0	1	2	1	2	1.276	1.004	1	1	4.0		1	48	5	4	0	0	2.0	1.0	0	0
21	1	1	11	0	0	1	2	1	2	1.003	0.379	1	1	5.0		1	53	4	5	0	0	1.0	2.0	1	1
21	1	1	12	0	0	1	1	2	1	1.096	1.071	2	1	9.0		1	62	9	7	0	0	1.0	2.0	1	0
21	1	1	13	0	0	2	1	4	3	1.873	0.489	4	1	9.0		1	71	9	7	0	0	1.0	1.0	0	1
21	1	1	14	0	0	1	2	1	2	0.69	0.842	1	1	7.0		1	78	8	7	0	0	2.0	1.0	0	0
21	1	1	15	0	0	1	1	1	2	1.049	0.752	2	2	3.0		1	81	3	7	0	0	1.0	2.0	1	0
21	1	1	16	0	0	1	2	2	1	1.474	0.641	1	2	6.0		1	87	6	6	0	0	1.0	1.0	1	0
21	1	1	17	0	0	1	1	2	1	1.131	0.698	2	1	8.0		1	95	8	7	0	0	1.0	2.0	1	0
21	1	1	18	0	0	1	1	2	1	1.118	0.822	2	1	7.0		1	102	7	6	0	0	1.0	1.0	1	1
21	1	1	19	0	0	1	2	2	1	1.46	0.811	1	2	7.0		1	109	5	7	0	0	1.0	1.0	1	0
21	1	1	20	1	0	1	0	2	1	-1.0	-1.0	-1	3	0.0		0	109	7	7	1	1	1.0	2.0	1	0
21	1	1	21	0	0	1	2	1	2	0.962	1.498	1	1	7.0		1	116	6	7	0	0	1.0	0.0	1	0
21	1	1	22	0	0	2	2	3	4	1.169	1.104	3	1	9.0		1	125	7	9	0	0	1.0	2.0	0	1
21	1	1	23	0	0	1	2	2	1	0.754	0.633	1	2	7.0		1	132	3	7	0	0	2.0	2.0	0	1
21	1	1	24	0	0	2	2	3	4	0.848	0.895	3	1	8.0		1	140	6	8	0	0	1.0	2.0	0	1
21	1	1	25	1	0	2	0	4	3	-1.0	-1.0	-1	3	0.0		0	140	7	8	1	1	2.0	2.0	1	0
21	1	2	26	0	0	1	2	2	1	1.01	0.858	1	2	6.0		1	146	4	6	0	0	2.0	0.0	0	0
21	1	2	27	0	0	1	1	1	2	1.235	1.026	2	2	0.0		0	146	0	5	0	0	1.0	2.0	1	0
21	1	2	28	0	0	1	2	2	1	1.033	1.025	1	2	2.0		1	148	2	2	0	0	1.0	1.0	1	0
21	1	2	29	0	0	2	2	4	3	1.677	0.869	3	2	1.0		1	149	4	1	0	0	1.0	2.0	0	1
21	1	2	30	0	0	2	1	4	3	1.148	0.835	4	1	1.0		1	150	1	1	0	0	2.0	2.0	1	0
21	1	2	31	0	0	1	2	1	2	1.09	0.833	1	1	1.0		1	151	4	1	0	0	2.0	1.0	0	0
21	1	2	32	0	0	1	2	2	1	0.993	0.993	1	2	1.0		1	152	5	1	0	0	1.0	2.0	1	1
21	1	2	33	0	0	1	1	2	1	1.137	1.072	2	1	3.0		1	155	3	0	0	0	1.0	2.0	1	0
21	1	2	34	0	0	1	2	1	2	0.697	0.753	1	1	1.0		1	156	3	1	0	0	1.0	1.0	1	0
21	1	2	35	0	0	2	2	4	3	1.264	1.887	3	2	2.0		1	158	2	2	0	0	1.0	2.0	0	1
21	1	2	36	0	0	2	2	4	3	1.635	0.931	3	2	2.0		1	160	6	2	0	0	2.0	2.0	1	1
21	1	2	37	0	0	1	1	2	1	0.751	1.015	2	1	7.0		1	167	7	3	0	0	2.0	2.0	0	0
21	1	2	38	0	0	1	2	1	2	1.005	1.612	1	1	2.0		1	169	5	2	0	0	1.0	1.0	1	0
21	1	2	39	0	0	1	2	2	1	1.69	0.969	1	2	3.0		1	172	6	3	0	0	1.0	2.0	1	1
21	1	2	40	0	0	2	2	3	4	0.786	0.89	3	1	2.0		1	174	7	2	0	0	1.0	2.0	0	1
21	1	2	41	0	0	1	1	2	1	0.992	0.823	2	1	9.0		1	183	9	0	0	0	2.0	2.0	0	0
21	1	2	42	0	0	2	2	3	4	0.929	0.96	3	1	1.0		1	184	6	1	0	0	1.0	1.0	0	0
21	1	2	43	0	1	1	2	1	2	1.352	-1.0	1	1	0.0		0	184	5	4	0	1	2.0	2.0	0	1
21	1	2	44	0	0	2	1	4	3	0.92	0.704	4	1	6.0		1	190	6	7	0	0	1.0	2.0	0	0
21	1	2	45	0	0	2	2	3	4	1.537	0.721	3	1	4.0		1	194	5	4	0	0	2.0	1.0	1	0
21	1	2	46	0	0	1	1	2	1	1.304	0.624	2	1	3.0		1	197	3	2	0	0	2.0	2.0	0	0
21	1	2	47	1	0	2	0	4	3	-1.0	-1.0	-1	3	0.0		0	197	3	4	1	1	1.0	1.0	0	0
21	1	2	48	0	0	2	1	3	4	0.554	1.33	4	2	2.0		1	199	2	1	0	0	2.0	0.0	1	0
21	1	2	49	0	0	1	1	2	1	1.423	0.35	2	1	1.0		1	200	1	3	0	0	2.0	1.0	0	1
21	1	2	50	0	0	2	1	4	3	0.886	0.869	4	1	1.0		1	201	1	5	0	0	1.0	1.0	0	1
21	1	3	51	0	1	1	1	2	1	1.308	-1.0	2	1	0.0		0	201	0	5	0	1	2.0	1.0	0	1
21	1	3	52	0	0	1	1	2	1	0.813	0.42	2	1	4.0		1	205	4	5	0	0	1.0	1.0	1	1
21	1	3	53	0	0	2	1	4	3	0.947	0.899	4	1	8.0		1	213	8	3	0	0	1.0	1.0	0	1
21	1	3	54	0	0	2	2	3	4	0.782	0.805	3	1	3.0		1	216	9	3	0	0	2.0	1.0	1	0
21	1	3	55	0	0	2	2	3	4	0.903	1.223	3	1	1.0		1	217	7	1	0	0	2.0	2.0	1	1
21	1	3	56	0	0	1	2	2	1	0.79	0.974	1	2	3.0		1	220	8	3	0	0	2.0	2.0	0	1
21	1	3	57	0	0	1	1	2	1	0.089	0.207	2	1	9.0		1	229	9	6	0	0	1.0	2.0	1	0
21	1	3	58	0	0	2	1	4	3	1.441	0.625	4	1	6.0		1	235	6	4	0	0	1.0	1.0	0	1
21	1	3	59	0	0	1	1	2	1	1.386	0.762	2	1	6.0		1	241	6	4	0	0	2.0	1.0	0	1
21	1	3	60	0	0	2	2	3	4	0.796	0.724	3	1	2.0		1	243	6	2	0	0	1.0	1.0	0	0
21	1	3	61	0	0	2	1	3	4	1.225	0.609	4	2	6.0		1	249	6	1	0	0	2.0	2.0	1	0
21	1	3	62	0	0	2	2	3	4	1.746	0.649	3	1	4.0		1	253	2	4	0	0	2.0	1.0	1	0
21	1	3	63	0	0	1	1	2	1	1.089	0.312	2	1	0.0		0	253	0	4	0	0	2.0	2.0	0	0
21	1	3	64	0	0	1	2	1	2	1.288	0.631	1	1	2.0		1	255	1	2	0	0	1.0	1.0	1	0
21	1	3	65	0	0	2	1	3	4	0.947	0.001	4	2	3.0		1	258	3	3	0	0	1.0	2.0	0	0
21	1	3	66	0	0	1	1	1	2	0.748	0.523	2	2	3.0		1	261	3	3	0	0	2.0	1.0	0	1
21	1	3	67	0	0	2	1	4	3	0.821	0.709	4	1	3.0		1	264	3	4	0	0	1.0	1.0	0	1
21	1	3	68	0	0	2	2	3	4	1.143	0.671	3	1	4.0		1	268	4	4	0	0	2.0	1.0	1	0
21	1	3	69	0	0	1	2	1	2	1.814	1.014	1	1	2.0		1	270	3	2	0	0	2.0	2.0	0	1
21	1	3	70	0	0	1	1	1	2	1.37	0.954	2	2	1.0		1	271	1	2	0	0	1.0	2.0	1	0
21	1	3	71	0	0	2	2	3	4	0.809	0.857	3	1	1.0		1	272	1	1	0	0	1.0	1.0	0	0
21	1	3	72	0	0	1	2	2	1	1.577	1.008	1	2	1.0		1	273	2	1	0	0	2.0	2.0	0	1
21	1	3	73	0	0	1	1	1	2	0.896	0.576	2	2	3.0		1	276	3	2	0	0	1.0	2.0	1	0
21	1	3	74	0	0	1	2	2	1	1.938	1.322	1	2	4.0		1	280	1	4	0	0	1.0	1.0	1	0
21	1	3	75	0	0	1	1	1	2	0.881	1.016	2	2	2.0		1	282	2	6	0	0	1.0	2.0	1	0
21	1	4	76	0	0	2	2	3	4	0.768	0.344	3	1	7.0		1	289	2	7	0	0	1.0	1.0	0	0
21	1	4	77	0	0	2	2	3	4	0.663	1.215	3	1	8.0		1	297	3	8	0	0	2.0	2.0	1	1
21	1	4	78	0	0	2	1	4	3	0.947	0.778	4	1	3.0		1	300	3	5	0	0	2.0	2.0	1	0
21	1	4	79	0	0	2	1	4	3	0.828	1.148	4	1	3.0		1	303	3	5	0	0	2.0	1.0	1	1
21	1	4	80	0	0	1	2	1	2	0.757	0.781	1	1	6.0		1	309	3	6	0	0	2.0	1.0	0	0
21	1	4	81	0	0	1	2	1	2	0.855	0.63	1	1	9.0		1	318	1	9	0	0	1.0	2.0	1	1
21	1	4	82	0	0	1	1	2	1	0.001	0.551	2	1	1.0		1	319	1	7	0	0	1.0	2.0	1	0
21	1	4	83	0	0	1	2	1	2	0.854	1.374	1	1	8.0		1	327	1	8	0	0	1.0	1.0	1	0
21	1	4	84	0	0	2	1	4	3	1.426	1.233	4	1	5.0		1	332	5	9	0	0	1.0	2.0	0	0
21	1	4	85	0	0	2	1	4	3	1.181	0.661	4	1	4.0		1	336	4	8	0	0	2.0	1.0	1	1
21	1	4	86	0	0	2	2	4	3	0.46	0.892	3	2	8.0		1	344	4	8	0	0	2.0	1.0	1	0
21	1	4	87	0	0	1	1	1	2	0.976	1.616	2	2	4.0		1	348	4	5	0	0	2.0	2.0	0	0
21	1	4	88	0	0	1	1	2	1	0.775	0.999	2	1	6.0		1	354	6	4	0	0	1.0	1.0	1	1
21	1	4	89	0	0	2	1	4	3	0.976	0.839	4	1	4.0		1	358	4	3	0	0	1.0	1.0	0	1
21	1	4	90	0	0	1	1	2	1	0.727	0.919	2	1	2.0		1	360	2	4	0	0	2.0	1.0	0	1
21	1	4	91	0	0	2	2	4	3	0.427	0.0	3	2	4.0		1	364	4	4	0	0	1.0	1.0	0	0
21	1	4	92	0	1	2	1	4	3	0.761	-1.0	4	1	0.0		0	364	8	4	0	1	2.0	2.0	1	0
21	1	4	93	0	0	2	2	3	4	0.961	0.561	3	1	3.0		1	367	7	3	0	0	2.0	1.0	1	0
21	1	4	94	0	0	1	2	1	2	1.026	0.387	1	1	4.0		1	371	8	4	0	0	2.0	2.0	0	1
21	1	4	95	0	0	2	1	4	3	1.106	1.082	4	1	8.0		1	379	8	2	0	0	1.0	2.0	0	0
21	1	4	96	0	0	2	2	3	4	0.885	0.821	3	1	3.0		1	382	8	3	0	0	2.0	1.0	1	0
21	1	4	97	0	0	1	1	2	1	0.903	0.942	2	1	8.0		1	390	8	2	0	0	2.0	2.0	0	0
21	1	4	98	0	0	2	1	4	3	0.763	1.082	4	1	8.0		1	398	8	1	0	0	1.0	1.0	0	1
21	1	4	99	0	0	2	1	4	3	0.87	1.43	4	1	7.0		1	405	7	2	0	0	2.0	1.0	1	1
21	1	4	100	0	0	2	1	4	3	1.069	0.805	4	1	4.0		1	409	4	3	0	0	2.0	1.0	1	1
21	2	1	1	0	0	2	1	4	3	0.965	0.418	4	1	8.0		1	8	8	0	0	0	0.0	0.0	0	0
21	2	1	2	0	0	1	2	2	1	0.701	0.618	1	2	2.0		1	10	6	2	0	0	2.0	1.0	0	0
21	2	1	3	0	0	1	1	2	1	0.834	0.472	2	1	5.0		1	15	5	1	0	0	1.0	2.0	1	0
21	2	1	4	0	0	2	2	3	4	0.814	1.141	3	1	1.0		1	16	3	1	0	0	1.0	1.0	0	0
21	2	1	5	0	0	1	1	2	1	1.775	0.786	2	1	1.0		1	17	1	2	0	0	2.0	2.0	0	0
21	2	1	6	0	0	1	2	2	1	1.195	0.467	1	2	3.0		1	20	1	3	0	0	1.0	1.0	1	0
21	2	1	7	0	0	1	2	1	2	1.123	0.768	1	1	3.0		1	23	2	3	0	0	1.0	2.0	1	1
21	2	1	8	0	0	1	2	1	2	0.873	0.69	1	1	5.0		1	28	2	5	0	0	1.0	2.0	1	1
21	2	1	9	0	0	1	2	1	2	0.904	0.797	1	1	5.0		1	33	1	5	0	0	1.0	2.0	1	1
21	2	1	10	0	0	2	2	3	4	1.133	0.909	3	1	6.0		1	39	3	6	0	0	1.0	2.0	0	1
21	2	1	11	0	0	2	2	3	4	0.684	0.988	3	1	6.0		1	45	3	6	0	0	2.0	2.0	1	1
21	2	1	12	0	0	2	2	3	4	0.751	1.721	3	1	7.0		1	52	2	7	0	0	2.0	2.0	1	1
21	2	1	13	0	0	2	2	3	4	1.146	0.639	3	1	6.0		1	58	2	6	0	0	2.0	2.0	1	1
21	2	1	14	0	0	2	2	4	3	1.476	0.675	3	2	8.0		1	66	2	8	0	0	2.0	2.0	1	1
21	2	1	15	0	0	2	2	3	4	1.065	0.802	3	1	6.0		1	72	1	6	0	0	2.0	2.0	1	1
21	2	1	16	0	0	2	1	3	4	0.735	0.441	4	2	1.0		1	73	1	5	0	0	2.0	2.0	1	0
21	2	1	17	0	0	1	1	2	1	0.778	0.597	2	1	1.0		1	74	1	5	0	0	2.0	1.0	0	1
21	2	1	18	0	0	1	2	2	1	0.543	0.778	1	2	8.0		1	82	1	8	0	0	1.0	1.0	1	0
21	2	1	19	0	0	1	2	1	2	1.019	0.775	1	1	9.0		1	91	1	9	0	0	1.0	2.0	1	1
21	2	1	20	0	0	1	2	2	1	1.321	0.979	1	2	9.0		1	100	1	9	0	0	1.0	2.0	1	1
21	2	1	21	1	0	2	0	4	3	-1.0	-1.0	-1	3	0.0		0	100	1	8	1	1	1.0	2.0	0	0
21	2	1	22	0	0	2	2	4	3	0.921	0.738	3	2	9.0		1	109	3	9	0	0	2.0	0.0	1	0
21	2	1	23	0	0	1	2	2	1	0.463	0.473	1	2	7.0		1	116	3	7	0	0	2.0	2.0	0	1
21	2	1	24	0	0	1	1	1	2	0.53	0.858	2	2	4.0		1	120	4	4	0	0	1.0	2.0	1	0
21	2	1	25	0	0	2	2	4	3	0.864	0.479	3	2	2.0		1	122	1	2	0	0	1.0	1.0	0	0
21	2	2	26	0	0	2	2	4	3	1.058	0.833	3	2	3.0		1	125	1	3	0	0	2.0	2.0	1	1
21	2	2	27	0	0	1	1	1	2	1.267	0.73	2	2	2.0		1	127	2	4	0	0	2.0	2.0	0	0
21	2	2	28	0	0	2	2	4	3	1.316	0.928	3	2	4.0		1	131	2	4	0	0	1.0	1.0	0	0
21	2	2	29	0	0	2	2	3	4	1.106	0.826	3	1	5.0		1	136	4	5	0	0	2.0	2.0	1	1
21	2	2	30	0	0	2	2	4	3	0.86	1.023	3	2	8.0		1	144	4	8	0	0	2.0	2.0	1	1
21	2	2	31	0	0	1	2	2	1	1.026	0.92	1	2	8.0		1	152	4	8	0	0	2.0	2.0	0	1
21	2	2	32	0	0	1	2	2	1	0.789	1.411	1	2	9.0		1	161	1	9	0	0	1.0	2.0	1	1
21	2	2	33	0	0	1	2	1	2	0.857	0.567	1	1	8.0		1	169	0	8	0	0	1.0	2.0	1	1
21	2	2	34	0	0	1	2	2	1	1.089	0.84	1	2	5.0		1	174	2	5	0	0	1.0	2.0	1	1
21	2	2	35	0	0	1	2	2	1	0.596	1.155	1	2	5.0		1	179	1	5	0	0	1.0	2.0	1	1
21	2	2	36	0	0	1	2	2	1	0.594	0.674	1	2	8.0		1	187	1	8	0	0	1.0	2.0	1	1
21	2	2	37	0	0	2	2	3	4	1.816	0.607	3	1	7.0		1	194	2	7	0	0	1.0	2.0	0	1
21	2	2	38	0	0	1	2	2	1	0.923	0.256	1	2	3.0		1	197	4	3	0	0	2.0	2.0	0	1
21	2	2	39	0	0	1	1	1	2	0.851	0.431	2	2	4.0		1	201	4	6	0	0	1.0	2.0	1	0
21	2	2	40	0	0	2	1	3	4	0.527	1.7	4	2	3.0		1	204	3	4	0	0	1.0	1.0	0	1
21	2	2	41	0	0	2	1	3	4	1.204	1.133	4	2	2.0		1	206	2	8	0	0	2.0	1.0	1	1
21	2	2	42	0	0	2	2	3	4	1.157	0.876	3	1	9.0		1	215	3	9	0	0	2.0	1.0	1	0
21	2	2	43	0	0	2	2	4	3	1.095	0.955	3	2	9.0		1	224	5	9	0	0	2.0	2.0	1	1
21	2	2	44	0	0	2	2	4	3	0.911	0.933	3	2	8.0		1	232	5	8	0	0	2.0	2.0	1	1
21	2	2	45	0	0	2	2	3	4	1.406	0.619	3	1	7.0		1	239	5	7	0	0	2.0	2.0	1	1
21	2	2	46	0	0	1	2	1	2	1.268	1.019	1	1	4.0		1	243	5	4	0	0	2.0	2.0	0	1
21	2	2	47	0	0	1	1	1	2	0.986	0.38	2	2	9.0		1	252	9	3	0	0	1.0	2.0	1	0
21	2	2	48	0	0	2	2	4	3	0.929	0.609	3	2	3.0		1	255	5	3	0	0	1.0	1.0	0	0
21	2	2	49	0	0	2	1	4	3	1.122	0.76	4	1	6.0		1	261	6	2	0	0	2.0	2.0	1	0
21	2	2	50	0	0	2	2	4	3	0.95	0.77	3	2	2.0		1	263	2	2	0	0	2.0	1.0	1	0
21	2	3	51	0	0	1	2	1	2	0.751	0.477	1	1	1.0		1	264	2	1	0	0	2.0	2.0	0	1
21	2	3	52	0	0	2	1	4	3	0.842	0.966	4	1	5.0		1	269	5	1	0	0	1.0	2.0	0	0
21	2	3	53	0	0	2	2	3	4	0.897	0.808	3	1	1.0		1	270	5	1	0	0	2.0	1.0	1	0
21	2	3	54	0	0	2	1	3	4	0.87	1.159	4	2	1.0		1	271	1	1	0	0	2.0	2.0	1	0
21	2	3	55	0	0	2	1	4	3	0.997	0.764	4	1	1.0		1	272	1	2	0	0	2.0	1.0	1	1
21	2	3	56	0	0	1	1	2	1	0.947	0.767	2	1	1.0		1	273	1	1	0	0	2.0	1.0	0	1
21	2	3	57	0	0	2	2	3	4	1.33	0.761	3	1	4.0		1	277	3	4	0	0	1.0	1.0	0	0
21	2	3	58	0	0	1	2	2	1	1.105	0.648	1	2	3.0		1	280	0	3	0	0	2.0	2.0	0	1
21	2	3	59	0	0	1	1	2	1	0.484	0.805	2	1	1.0		1	281	1	0	0	0	1.0	2.0	1	0
21	2	3	60	0	0	1	2	1	2	1.117	0.397	1	1	0.0		0	281	1	0	0	0	1.0	1.0	1	0
21	2	3	61	0	0	1	1	1	2	0.911	0.597	2	2	0.0		0	281	0	3	0	0	1.0	2.0	1	0
21	2	3	62	0	0	2	1	4	3	0.568	0.465	4	1	0.0		0	281	0	1	0	0	1.0	1.0	0	1
21	2	3	63	0	0	1	2	2	1	0.501	0.708	1	2	2.0		1	283	2	2	0	0	2.0	1.0	0	0
21	2	3	64	0	0	2	2	3	4	0.834	0.759	3	1	3.0		1	286	1	3	0	0	1.0	2.0	0	1
21	2	3	65	0	0	2	2	3	4	0.785	0.726	3	1	2.0		1	288	1	2	0	0	2.0	2.0	1	1
21	2	3	66	0	0	2	1	3	4	1.093	1.352	4	2	0.0		0	288	0	4	0	0	2.0	2.0	1	0
21	2	3	67	0	0	1	2	1	2	0.724	0.855	1	1	6.0		1	294	3	6	0	0	2.0	1.0	0	0
21	2	3	68	0	0	2	2	4	3	0.55	0.859	3	2	7.0		1	301	2	7	0	0	1.0	2.0	0	1
21	2	3	69	0	0	1	2	1	2	0.822	0.847	1	1	8.0		1	309	4	8	0	0	2.0	2.0	0	1
21	2	3	70	0	0	1	1	2	1	0.946	1.066	2	1	4.0		1	313	4	8	0	0	1.0	2.0	1	0
21	2	3	71	0	0	2	2	3	4	1.173	0.789	3	1	6.0		1	319	3	6	0	0	1.0	1.0	0	0
21	2	3	72	0	0	1	2	2	1	0.885	0.919	1	2	2.0		1	321	4	2	0	0	2.0	2.0	0	1
21	2	3	73	0	0	1	1	2	1	0.791	0.677	2	1	2.0		1	323	2	4	0	0	1.0	2.0	1	0
21	2	3	74	0	0	2	2	3	4	0.892	0.638	3	1	5.0		1	328	2	5	0	0	1.0	1.0	0	0
21	2	3	75	0	0	2	2	3	4	1.444	0.815	3	1	6.0		1	334	2	6	0	0	2.0	2.0	1	1
21	2	4	76	0	0	1	2	1	2	0.679	0.323	1	1	7.0		1	341	1	7	0	0	2.0	2.0	0	1
21	2	4	77	0	0	2	2	3	4	0.778	0.808	3	1	8.0		1	349	1	8	0	0	1.0	2.0	0	1
21	2	4	78	0	0	2	2	4	3	0.622	0.88	3	2	7.0		1	356	0	7	0	0	2.0	2.0	1	1
21	2	4	79	0	0	2	1	4	3	1.052	1.183	4	1	4.0		1	360	4	6	0	0	2.0	2.0	1	0
21	2	4	80	0	0	2	1	4	3	0.7	1.341	4	1	6.0		1	366	6	6	0	0	2.0	1.0	1	1
21	2	4	81	0	0	1	2	1	2	1.667	0.722	1	1	8.0		1	374	6	8	0	0	2.0	1.0	0	0
21	2	4	82	0	0	1	2	2	1	0.891	0.739	1	2	7.0		1	381	6	7	0	0	1.0	2.0	1	1
21	2	4	83	0	0	2	1	4	3	0.848	0.813	4	1	3.0		1	384	3	6	0	0	1.0	2.0	0	0
21	2	4	84	0	0	1	2	1	2	0.65	0.693	1	1	6.0		1	390	4	6	0	0	2.0	1.0	0	0
21	2	4	85	0	0	1	2	2	1	0.852	0.861	1	2	8.0		1	398	5	8	0	0	1.0	2.0	1	1
21	2	4	86	0	0	2	1	4	3	0.938	0.506	4	1	5.0		1	403	5	8	0	0	1.0	2.0	0	0
21	2	4	87	0	0	2	1	4	3	0.877	0.898	4	1	3.0		1	406	3	7	0	0	2.0	1.0	1	1
21	2	4	88	0	0	1	2	2	1	1.497	0.774	1	2	9.0		1	415	2	9	0	0	2.0	1.0	0	0
21	2	4	89	0	0	2	2	3	4	0.802	1.347	3	1	5.0		1	420	4	5	0	0	1.0	2.0	0	1
21	2	4	90	0	0	1	2	1	2	0.863	1.847	1	1	4.0		1	424	0	4	0	0	2.0	2.0	0	1
21	2	4	91	0	0	2	2	3	4	1.15	0.909	3	1	6.0		1	430	1	6	0	0	1.0	2.0	0	1
21	2	4	92	0	0	2	1	4	3	0.719	0.832	4	1	1.0		1	431	1	9	0	0	2.0	2.0	1	0
21	2	4	93	0	0	2	2	4	3	0.605	0.827	3	2	8.0		1	439	3	8	0	0	2.0	1.0	1	0
21	2	4	94	0	0	1	2	1	2	0.766	0.946	1	1	8.0		1	447	1	8	0	0	2.0	2.0	0	1
21	2	4	95	0	0	1	2	2	1	0.887	0.654	1	2	8.0		1	455	6	8	0	0	1.0	2.0	1	1
21	2	4	96	0	0	1	1	2	1	1.061	0.002	2	1	3.0		1	458	3	9	0	0	1.0	2.0	1	0
21	2	4	97	0	0	1	1	1	2	0.587	0.773	2	2	4.0		1	462	4	6	0	0	1.0	1.0	1	1
21	2	4	98	0	0	1	2	1	2	0.446	0.877	1	1	9.0		1	471	3	9	0	0	1.0	1.0	1	0
21	2	4	99	0	0	2	1	4	3	0.828	0.499	4	1	3.0		1	474	3	4	0	0	1.0	2.0	0	0
21	2	4	100	0	0	2	2	4	3	0.744	0.875	3	2	4.0		1	478	2	4	0	0	2.0	1.0	1	0
23	2	1	1	0	0	2	2	4	3	1.346	0.651	3	2	1.0		1	1	7	1	0	0	0.0	0.0	0	0
23	2	1	2	0	0	1	2	1	2	0.809	0.316	1	1	4.0		1	5	6	4	0	0	2.0	2.0	0	1
23	2	1	3	0	0	2	1	4	3	0.711	1.124	4	1	5.0		1	10	5	4	0	0	1.0	2.0	0	0
23	2	1	4	0	0	1	1	1	2	1.278	0.616	2	2	6.0		1	16	6	4	0	0	2.0	1.0	0	1
23	2	1	5	0	0	1	1	2	1	0.418	0.446	2	1	8.0		1	24	8	6	0	0	1.0	1.0	1	1
23	2	1	6	0	0	1	2	2	1	0.486	0.562	1	2	4.0		1	28	9	4	0	0	1.0	1.0	1	0
23	2	1	7	0	0	1	1	1	2	1.205	0.435	2	2	7.0		1	35	7	2	0	0	1.0	2.0	1	0
23	2	1	8	0	0	1	2	2	1	1.758	0.681	1	2	0.0		0	35	9	0	0	0	1.0	1.0	1	0
23	2	1	9	0	0	1	1	2	1	1.187	0.83	2	1	9.0		1	44	9	2	0	0	1.0	2.0	1	0
23	2	1	10	0	0	2	1	3	4	1.071	0.688	4	2	9.0		1	53	9	1	0	0	1.0	1.0	0	1
23	2	1	11	1	0	2	0	4	3	-1.0	-1.0	-1	3	0.0		0	53	8	0	1	1	2.0	1.0	1	0
23	2	1	12	0	0	1	1	1	2	1.547	0.789	2	2	8.0		1	61	8	1	0	0	2.0	0.0	0	0
23	2	1	13	0	0	2	2	3	4	0.701	0.733	3	1	2.0		1	63	8	2	0	0	1.0	1.0	0	0
23	2	1	14	1	0	2	0	3	4	-1.0	-1.0	-1	3	0.0		0	63	7	3	1	1	2.0	2.0	1	0
23	2	1	15	0	0	2	2	4	3	0.873	0.459	3	2	1.0		1	64	4	1	0	0	2.0	0.0	1	0
23	2	1	16	0	0	2	1	3	4	1.002	0.503	4	2	3.0		1	67	3	2	0	0	2.0	2.0	1	0
23	2	1	17	0	0	2	1	3	4	0.472	0.739	4	2	5.0		1	72	5	3	0	0	2.0	1.0	1	1
23	2	1	18	1	0	2	0	4	3	-1.0	-1.0	-1	3	0.0		0	72	9	1	1	1	2.0	1.0	1	0
23	2	1	19	0	0	2	2	3	4	0.702	1.687	3	1	0.0		0	72	9	0	0	0	2.0	0.0	1	0
23	2	1	20	0	0	1	1	1	2	1.217	0.552	2	2	6.0		1	78	6	4	0	0	2.0	2.0	0	0
23	2	1	21	1	0	1	0	1	2	-1.0	-1.0	-1	3	0.0		0	78	8	4	1	1	1.0	1.0	1	0
23	2	1	22	0	0	2	1	3	4	1.07	0.34	4	2	7.0		1	85	7	3	0	0	1.0	0.0	0	0
23	2	1	23	0	0	1	2	2	1	1.604	0.863	1	2	3.0		1	88	5	3	0	0	2.0	1.0	0	0
23	2	1	24	0	0	2	1	4	3	1.478	0.425	4	1	5.0		1	93	5	2	0	0	1.0	2.0	0	0
23	2	1	25	0	0	2	1	3	4	1.046	0.368	4	2	2.0		1	95	2	3	0	0	2.0	1.0	1	1
23	2	2	26	0	0	1	1	1	2	1.074	0.455	2	2	1.0		1	96	1	2	0	0	2.0	1.0	0	1
23	2	2	27	0	0	1	1	2	1	0.964	0.932	2	1	1.0		1	97	1	3	0	0	1.0	1.0	1	1
23	2	2	28	0	0	2	2	3	4	0.792	0.874	3	1	0.0		0	97	3	0	0	0	1.0	1.0	0	0
23	2	2	29	0	0	2	1	3	4	1.237	0.852	4	2	0.0		0	97	0	0	0	0	2.0	2.0	1	0
23	2	2	30	0	0	2	1	3	4	0.786	0.489	4	2	1.0		1	98	1	3	0	0	2.0	1.0	1	1
23	2	2	31	0	0	1	2	1	2	0.966	0.817	1	1	2.0		1	100	2	2	0	0	2.0	1.0	0	0
23	2	2	32	0	0	1	1	1	2	1.61	0.554	2	2	1.0		1	101	1	1	0	0	1.0	2.0	1	0
23	2	2	33	0	0	1	1	2	1	1.111	0.403	2	1	5.0		1	106	5	0	0	0	1.0	1.0	1	1
23	2	2	34	0	0	1	1	1	2	1.278	0.874	2	2	4.0		1	110	4	3	0	0	1.0	1.0	1	1
23	2	2	35	0	0	1	2	2	1	0.842	0.355	1	2	5.0		1	115	5	5	0	0	1.0	1.0	1	0
23	2	2	36	0	0	1	2	2	1	1.269	0.885	1	2	3.0		1	118	1	3	0	0	1.0	2.0	1	1
23	2	2	37	0	0	1	1	2	1	0.823	0.384	2	1	4.0		1	122	4	5	0	0	1.0	2.0	1	0
23	2	2	38	0	0	2	1	3	4	1.086	0.522	4	2	4.0		1	126	4	2	0	0	1.0	1.0	0	1
23	2	2	39	0	0	2	2	3	4	0.546	0.726	3	1	3.0		1	129	5	3	0	0	2.0	1.0	1	0
23	2	2	40	0	0	2	2	4	3	0.982	0.958	3	2	0.0		0	129	3	0	0	0	2.0	2.0	1	1
23	2	2	41	0	0	2	2	3	4	0.956	0.479	3	1	0.0		0	129	2	0	0	0	2.0	2.0	1	1
23	2	2	42	0	0	1	1	2	1	1.148	0.791	2	1	1.0		1	130	1	0	0	0	2.0	2.0	0	0
23	2	2	43	0	0	1	2	2	1	1.172	0.449	1	2	4.0		1	134	4	4	0	0	1.0	1.0	1	0
23	2	2	44	0	0	2	2	3	4	1.16	1.065	3	1	5.0		1	139	4	5	0	0	1.0	2.0	0	1
23	2	2	45	0	0	1	2	2	1	1.151	0.492	1	2	3.0		1	142	5	3	0	0	2.0	2.0	0	1
23	2	2	46	0	0	1	1	1	2	0.897	1.065	2	2	3.0		1	145	3	1	0	0	1.0	2.0	1	0
23	2	2	47	0	0	1	1	1	2	1.607	0.607	2	2	3.0		1	148	3	2	0	0	1.0	1.0	1	1
23	2	2	48	0	0	1	1	2	1	1.207	0.533	2	1	3.0		1	151	3	7	0	0	1.0	1.0	1	1
23	2	2	49	0	0	1	2	2	1	0.553	0.602	1	2	9.0		1	160	8	9	0	0	1.0	1.0	1	0
23	2	2	50	0	0	1	2	2	1	1.402	0.825	1	2	7.0		1	167	6	7	0	0	1.0	2.0	1	1
23	2	3	51	0	0	1	1	1	2	0.976	0.618	2	2	8.0		1	175	8	8	0	0	1.0	2.0	1	0
23	2	3	52	0	0	1	2	2	1	1.163	1.272	1	2	9.0		1	184	5	9	0	0	1.0	1.0	1	0
23	2	3	53	0	0	2	2	3	4	0.893	0.322	3	1	9.0		1	193	5	9	0	0	1.0	2.0	0	1
23	2	3	54	0	0	1	2	1	2	1.732	0.613	1	1	5.0		1	198	9	5	0	0	2.0	2.0	0	1
23	2	3	55	0	0	2	1	3	4	1.158	0.854	4	2	7.0		1	205	7	3	0	0	1.0	2.0	0	0
23	2	3	56	0	0	1	1	1	2	1.28	1.056	2	2	4.0		1	209	4	3	0	0	2.0	1.0	0	1
23	2	3	57	0	0	2	2	3	4	0.657	1.087	3	1	3.0		1	212	7	3	0	0	1.0	1.0	0	0
23	2	3	58	0	0	1	2	1	2	1.007	0.829	1	1	4.0		1	216	8	4	0	0	2.0	2.0	0	1
23	2	3	59	0	0	1	2	1	2	1.15	0.579	1	1	7.0		1	223	6	7	0	0	1.0	2.0	1	1
23	2	3	60	0	0	2	2	3	4	1.987	0.944	3	1	7.0		1	230	8	7	0	0	1.0	2.0	0	1
23	2	3	61	0	0	1	2	1	2	1.147	0.345	1	1	9.0		1	239	8	9	0	0	2.0	2.0	0	1
23	2	3	62	0	0	1	1	2	1	1.368	0.327	2	1	7.0		1	246	7	6	0	0	1.0	2.0	1	0
23	2	3	63	0	0	1	1	2	1	1.464	0.389	2	1	6.0		1	252	6	6	0	0	1.0	1.0	1	1
23	2	3	64	1	0	1	0	2	1	-1.0	-1.0	-1	3	0.0		0	252	7	7	1	1	1.0	1.0	1	0
23	2	3	65	0	0	2	1	4	3	1.297	1.06	4	1	8.0		1	260	8	4	0	0	1.0	0.0	0	0
23	2	3	66	0	0	1	1	1	2	1.15	0.637	2	2	9.0		1	269	9	2	0	0	2.0	1.0	0	1
23	2	3	67	0	0	1	2	1	2	0.711	0.3	1	1	3.0		1	272	8	3	0	0	1.0	1.0	1	0
